Subject,Trial,Gaussian_Centroid,Standard_Deviation,Reaction_Time,Secondary_Task_Acc,Net_Cognitive_Load,Speed,Number_of_Fish,Turbidity,CameraDistance,Fish_Type
1,1,1,0.1,2.28434771725881,-0.255609437163093,0.932542822033771,7,8,3,1,0
1,3,1,0.1,-0.171026510066587,-0.843511142638205,0.958104503415729,3,10,3,1,1
1,4,1,0.1,1.60070853734751,1.50809567926225,0.742935215188244,3,12,3,1,2
1,5,1,0.1,-0.385782273389508,-0.255609437163093,0.347221561258025,7,12,3,1,2
1,6,1,0.1,0.0186744142019933,-0.255609437163093,0.886185834413008,7,12,3,2,0
1,7,1,0.1,-0.0672278911271752,-0.255609437163093,0.167965553711152,7,12,7,2,0
1,8,1,0.1,-0.471684578718677,-0.255609437163093,0.20199085286034,3,12,3,2,0
1,9,1,0.1,-0.428733426054093,-0.255609437163093,-0.0618465437359384,3,8,7,2,0
1,10,1,0.1,-0.740129282872328,-0.255609437163093,-2.52492056807008,7,8,3,2,2
1,11,1,0.1,-0.840348639089692,-0.843511142638205,-0.0756131596204825,7,10,7,1,1
1,12,1,0.1,-0.718653706540036,-0.255609437163093,-0.981991190925125,7,8,7,1,0
1,13,1,0.1,-0.16386798462249,1.50809567926225,1.08552424653474,3,12,7,1,0
1,14,1,0.1,-0.919092418974763,-0.255609437163093,-0.0116964718018214,7,8,3,1,1
1,15,1,0.1,1.10677028170479,-0.843511142638205,0.740454523138308,3,10,7,1,2
1,16,1,0.1,0.240588702969012,-0.843511142638205,-0.289265325975739,3,10,7,2,2
1,17,1,0.1,2.69954219301646,1.50809567926225,1.7665631232477,7,12,7,1,2
1,18,1,0.1,0.430289627237592,-0.255609437163093,0.91486357557241,7,8,7,2,1
1,19,1,0.1,-0.679281816597501,-0.255609437163093,-0.566964946270452,7,8,3,2,1
1,20,1,0.1,-0.546849095881699,-0.843511142638205,-3.008045408721,7,10,7,2,2
1,21,1,0.1,-0.443050476942287,-0.255609437163093,0.992145343006177,3,8,3,2,2
1,22,1,0.1,-0.29987996806034,-0.255609437163093,0.0574001637234682,3,8,3,2,1
1,23,1,0.1,-0.589800248546284,3.27180079568758,1.30405441547392,3,10,3,1,0
1,24,1,0.1,-0.915513156252714,-0.255609437163093,0.486087558378587,3,8,7,1,1
2,1,1,0.1,0.464088670255891,-0.420558293861036,1.93738067222501,7,12,3,1,2
2,2,1,0.1,1.02587331658995,1.53300281310635,2.33529243679393,7,10,3,1,0
2,3,1,0.1,0.830743635510334,3.48656392007375,2.15410974835614,7,12,7,1,1
2,4,1,0.1,1.23673926227276,-0.420558293861036,2.30123320554771,7,8,7,2,2
2,5,1,0.1,-0.0221619059828328,-0.420558293861036,2.30388942354009,7,12,7,2,1
2,6,1,0.1,0.674954615938704,0.556222259622659,1.80105990872356,7,12,7,1,2
2,7,1,0.1,1.43029531689206,-0.420558293861036,1.91149141055105,3,8,3,1,0
2,8,1,0.1,1.83943819657513,-0.746151811688934,2.45612731509766,3,10,7,1,2
2,9,1,0.1,0.0816974403982539,-0.746151811688934,2.08053945649721,3,10,3,2,0
2,10,1,0.1,-0.402979509380151,-0.746151811688934,1.06626196872863,7,10,3,2,0
2,11,1,0.1,-0.0945487231575296,-0.420558293861036,2.19847551889826,7,8,7,2,0
2,12,1,0.1,0.169820522176146,0.556222259622659,2.13832674191663,3,12,7,2,2
2,13,1,0.1,-0.989942179079322,1.53300281310635,0.600994275065948,7,10,3,1,1
2,14,1,0.1,1.68050192408286,-0.420558293861036,2.17301000735983,3,8,7,2,1
2,15,1,0.1,-1.0607553697937,-0.746151811688934,1.41359762773469,7,10,7,1,0
2,16,1,0.1,-0.612271828602644,-0.420558293861036,2.3585033042929,3,12,3,2,2
2,17,1,0.1,0.475104055478128,0.556222259622659,2.43173057381237,3,8,3,2,1
2,18,1,0.1,-0.115005867141683,-0.420558293861036,2.18538448343669,3,12,3,1,2
2,19,1,0.1,-0.706689416221813,0.556222259622659,2.26586419942374,3,12,7,1,1
2,20,1,0.1,-1.42268945566718,-0.746151811688934,0.264296794552553,3,10,7,2,0
2,21,1,0.1,-0.635876225507436,-0.420558293861036,1.18854270290414,7,12,3,2,1
2,22,1,0.1,-1.38649604707984,-0.420558293861036,0.151479327871714,3,8,7,1,0
2,23,1,0.1,-1.20080812476213,-0.420558293861036,0.562568229427414,3,8,3,1,1
2,24,1,0.1,-1.25903230379396,-0.420558293861036,-1.77054344495183,7,8,3,2,2
3,1,1,0.1,3.2587883326523,-0.313103974450949,-0.0923025172769439,7,8,3,2,0
3,2,1,0.1,0.338950201642425,1.29714503701107,0.703478401254939,3,8,3,1,0
3,3,1,0.1,0.773530760676452,-0.313103974450949,0.78584238581529,3,8,7,2,2
3,4,1,0.1,-0.231436782089736,1.29714503701107,-0.103600947715242,7,8,3,1,1
3,5,1,0.1,-0.557372201365257,-0.313103974450949,-0.195591767038295,7,8,7,1,1
3,6,1,0.1,-0.163533569740669,2.90739404847309,-3.52582509370142,7,10,7,2,1
3,7,1,0.1,-0.38761417049259,-0.849853644938288,0.277260321977965,7,10,3,1,2
3,8,1,0.1,-0.28575935196899,1.29714503701107,0.0660206083805158,7,8,7,2,0
3,9,1,0.1,-0.143162606035949,1.29714503701107,-0.456975224698056,3,12,7,1,1
3,10,1,0.1,-0.808614087056804,-0.849853644938288,-2.43459035369656,7,10,3,2,2
3,11,1,0.1,-0.964791475459657,-0.849853644938288,-2.85534610504029,3,10,7,1,0
3,12,1,0.1,-0.849356014466244,1.29714503701107,-0.851861820486054,3,12,3,1,1
3,13,1,0.1,-0.50983995272091,-0.313103974450949,-0.21176527586619,3,12,7,2,0
3,14,1,0.1,0.522288874984905,-0.849853644938288,0.681377245848393,3,10,3,2,2
3,15,1,0.1,-0.910468905580404,-0.849853644938288,-0.815810679036119,7,10,3,2,1
3,16,1,0.1,-0.217856139619923,-0.313103974450949,-0.337810331532975,3,8,3,1,2
3,17,1,0.1,-0.231436782089736,-0.313103974450949,0.0635410277489886,7,8,3,1,0
3,18,1,0.1,0.0605470310112509,-0.313103974450949,-1.28410543026525,3,8,3,2,0
3,19,1,0.1,0.0130147823669042,-0.313103974450949,-0.655753401850909,3,8,7,1,2
3,20,1,0.1,0.705627548327385,-0.313103974450949,-0.841920225508596,7,12,7,2,2
3,21,1,0.1,0.352530844112238,-0.313103974450949,-1.03364476923226,3,12,7,2,1
3,22,1,0.1,2.17233693506723,-0.849853644938288,0.661967047205147,3,10,3,2,1
3,23,1,0.1,-1.10059790015779,-0.849853644938288,-0.136200196006674,7,10,7,1,2
3,24,1,0.1,-0.83577537199643,-0.313103974450949,0.553734873373685,7,12,7,1,0
4,1,1,0.1,-0.00888346395525166,-0.0591726335413945,1.25968120034029,3,8,7,2,1
4,2,1,0.1,2.30747976237662,-0.0591726335413945,2.44917755724879,7,12,7,2,1
4,3,1,0.1,1.46799241860534,-0.0591726335413945,2.13672357741134,3,8,3,2,2
4,4,1,0.1,0.81505781789434,-0.0591726335413945,1.45667927559574,7,8,7,1,1
4,5,1,0.1,0.370884620131757,-0.68048528572603,1.76775791705368,7,10,3,1,2
4,6,1,0.1,0.0954972375189553,3.66870327956642,1.1897944530641,7,10,3,1,1
4,7,1,0.1,-0.144356289272839,-0.68048528572603,1.93827966369857,3,10,3,1,2
4,9,1,0.1,-1.33029872729894,-0.0591726335413945,0.239396688143342,7,8,3,2,0
4,10,1,0.1,-1.01271489089869,-0.0591726335413945,1.50470303849944,7,8,3,2,1
4,11,1,0.1,-0.424185403863267,-0.68048528572603,1.14775145649945,3,10,3,2,0
4,12,1,0.1,0.21320313492604,-0.0591726335413945,1.05937885027437,7,8,7,1,2
4,13,1,0.1,-0.684026724554378,-0.68048528572603,1.86242428842217,3,10,7,1,1
4,14,1,0.1,-0.746210972241139,-0.68048528572603,-1.62132263142547,7,10,3,2,2
4,15,1,0.1,0.470823589628338,1.80476532301251,0.921214022444306,3,12,3,1,1
4,16,1,0.1,0.262062186679924,-0.68048528572603,1.30634789947754,3,10,3,2,1
4,17,1,0.1,0.981622767055308,-0.0591726335413945,1.67582155872735,7,8,7,2,0
4,19,1,0.1,-1.1348625202834,-0.0591726335413945,0.0227448361881669,3,12,7,1,2
4,21,1,0.1,1.17927984005966,-0.68048528572603,1.80186089834408,3,10,3,1,0
4,22,1,0.1,-1.33029872729894,-0.0591726335413945,1.47840557561117,7,8,7,2,2
4,23,1,0.1,0.0444173197762583,-0.0591726335413945,1.79656904145867,3,12,7,1,0
4,24,1,0.1,-1.3924829749857,-0.0591726335413945,0.241641394369719,3,12,7,2,2
5,1,1,0.1,2.16756348179368,-0.395008187929654,1.00623272685957,7,8,7,2,2
5,2,1,0.1,1.08347567432217,-0.395008187929654,-0.3568626889605,3,8,7,1,2
5,3,1,0.1,0.18792487684571,-0.395008187929654,-0.140195064762379,7,12,3,2,2
5,4,1,0.1,-0.532555839921067,0.371772412169085,-5.18651013185236,3,12,7,2,2
5,5,1,0.1,1.28547961360258,-0.6506017212959,1.13702386488497,3,10,7,2,1
5,7,1,0.1,0.807403623972285,-0.395008187929654,0.177631843819048,3,8,3,2,0
5,9,1,0.1,0.120590230418908,-0.395008187929654,0.00565958259287047,3,8,7,1,1
5,10,1,0.1,-0.956764112409917,-0.6506017212959,-8.57787198898885,7,10,3,1,2
5,11,1,0.1,2.44363553214356,2.6721142124653,1.85491159978477,3,12,3,1,1
5,12,1,0.1,0.369728422198074,2.6721142124653,0.958055516121632,7,12,3,1,1
5,13,1,0.1,0.107123301133548,-0.395008187929654,0.642269077648369,7,8,3,2,1
5,14,1,0.1,-0.24301686028582,-0.395008187929654,-0.431133852061544,3,12,7,2,0
5,15,1,0.1,-0.357485759211383,-0.395008187929654,1.02494889438297,7,8,7,2,0
5,16,1,0.1,-1.07123301133548,-0.395008187929654,0.927867793776278,3,12,3,2,2
5,17,1,0.1,-1.165501516333,-0.6506017212959,-1.26657324220441,3,10,3,1,2
5,18,1,0.1,-0.559489698491788,1.13855301226782,0.77926870742523,3,10,3,1,0
5,19,1,0.1,-0.344018829926022,-0.6506017212959,0.851764996176072,7,10,7,2,1
5,20,1,0.1,-0.707625920630751,-0.6506017212959,-2.25683981357577,3,10,7,1,0
5,21,1,0.1,-0.552756233849107,1.13855301226782,-0.724991194970198,7,10,7,1,1
5,22,1,0.1,-0.822094819556314,-0.395008187929654,0.204961026122579,7,8,7,1,2
5,23,1,0.1,-0.465221193494265,-0.395008187929654,-1.14093940990318,7,12,7,1,0
5,24,1,0.1,-0.795160960985593,-0.395008187929654,0.469122899592668,7,8,3,2,0
6,1,1,0.1,0.233148016104067,-0.401593372583645,2.477367576451,3,8,7,2,1
6,2,1,0.1,2.25361710552058,0.912712210417374,2.21250139994397,7,12,3,2,1
6,3,1,0.1,0.111390490191631,0.912712210417374,1.68310884853632,3,8,7,1,0
6,4,1,0.1,0.813702016469159,-0.401593372583645,2.83242801854579,3,8,7,2,0
6,5,1,0.1,-0.336818373312119,-0.839695233583985,1.78407422673837,7,10,7,2,2
6,6,1,0.1,2.91004898435284,2.22701779341839,2.91114664065914,7,10,3,1,1
6,7,1,0.1,-0.0915387196624291,-0.401593372583645,2.46890694607364,3,8,3,1,2
6,8,1,0.1,0.0690400463960008,-0.401593372583645,1.56263283672568,3,8,7,1,2
6,9,1,0.1,0.40784359676104,-0.401593372583645,2.26325976056134,7,12,7,1,0
6,10,1,0.1,-0.66503431272825,-0.839695233583985,1.98045384584828,7,10,7,1,2
6,11,1,0.1,-0.430342270027468,-0.401593372583645,1.50405152035713,7,12,7,2,0
6,12,1,0.1,-0.864434318932674,-0.839695233583985,1.3802791288239,3,10,7,2,2
6,13,1,0.1,-0.118007747034698,-0.401593372583645,0.811015063943528,3,8,3,1,0
6,14,1,0.1,1.42954805333061,-0.839695233583985,2.95004100985006,3,10,3,2,0
6,15,1,0.1,-0.779733431341415,-0.401593372583645,1.12198972452563,3,12,3,2,1
6,16,1,0.1,0.317848903695326,-0.401593372583645,2.62780406745253,7,8,3,2,2
6,17,1,0.1,-1.05677591783783,0.912712210417374,0.652179814656954,3,12,7,1,1
6,18,1,0.1,-0.250352883896041,-0.401593372583645,0.660097930786193,3,12,3,2,2
6,19,1,0.1,-0.966781224772113,2.22701779341839,0.984448734464648,3,10,3,1,1
6,20,1,0.1,-0.91031396637794,2.22701779341839,1.59787774022404,7,10,7,1,1
6,21,1,0.1,-0.403873242655199,-0.839695233583985,2.27415937454572,7,10,3,1,0
6,22,1,0.1,-0.959722817472841,-0.401593372583645,1.2944002877343,7,12,3,1,2
6,23,1,0.1,-0.423283862728196,-0.401593372583645,0.998581849909097,7,8,7,2,1
6,24,1,0.1,-0.289174124042035,-0.401593372583645,0.562567486261176,7,12,3,2,0
7,1,1,0.1,1.46706724705617,-0.290957186981324,1.91783781680516,7,8,7,2,2
7,2,1,0.1,3.76560498367291,-0.290957186981324,2.23249157067503,3,8,7,1,2
7,3,1,0.1,0.939971510647681,-0.290957186981324,1.07234179516791,7,12,3,2,2
7,4,1,0.1,0.085942975707351,-0.290957186981324,-0.477338540185366,3,12,7,2,2
7,6,1,0.1,-0.254334018682937,-0.290957186981324,-0.601481876382437,7,8,3,1,0
7,7,1,0.1,-0.457833005524187,-0.290957186981324,-0.418093602575483,3,8,3,2,0
7,8,1,0.1,-0.368871699801236,-0.290957186981324,-1.19774694192864,3,8,3,2,1
7,9,1,0.1,0.065926681919687,-0.290957186981324,-0.0887048350255437,3,8,7,1,1
7,10,1,0.1,-0.331063144868982,2.76409327632257,-1.35005049562018,7,10,3,1,2
7,12,1,0.1,-0.00524236265867385,1.23656804467062,1.44326590621081,7,12,3,1,1
7,13,1,0.1,-0.510097772636421,-0.290957186981324,0.153828936969253,7,8,3,2,1
7,14,1,0.1,-0.472289217704167,-0.290957186981324,1.12315285049307,3,12,7,2,0
7,15,1,0.1,-0.541234229639454,-0.290957186981324,-4.73935048154974,7,8,7,2,0
7,16,1,0.1,-0.531226082745622,-0.290957186981324,-0.171031875334163,3,12,3,2,2
7,17,1,0.1,-0.294366606258265,-0.800132264198639,-0.667225186281018,3,10,3,1,2
7,19,1,0.1,-0.425584532199618,-0.800132264198639,-1.05009644688312,7,10,7,2,1
7,20,1,0.1,-0.446712842308818,-0.800132264198639,-1.07672951203665,3,10,7,1,0
7,21,1,0.1,-0.430032597485765,2.76409327632257,-0.233720123580712,7,10,7,1,1
7,22,1,0.1,-0.401120173125806,-0.290957186981324,-0.850639735667056,7,8,7,1,2
7,23,1,0.1,-0.516769870565642,-0.290957186981324,-0.997847148572081,7,12,7,1,0
7,24,1,0.1,-0.337735242798203,-0.290957186981324,1.1952041719639,7,8,3,2,0
8,1,1,0.1,1.74430280251217,-0.81401415689105,0.836693616584896,3,10,7,1,1
8,2,1,0.1,1.95922110775353,-0.222003860970287,0.347399009759968,3,8,3,2,0
8,3,1,0.1,1.11011763950489,-0.81401415689105,-0.96727929545828,7,10,3,2,2
8,4,1,0.1,1.51881474455403,-0.81401415689105,0.690517193587737,7,10,3,2,0
8,5,1,0.1,0.070758622354054,-0.222003860970287,-0.546470160305745,3,8,3,1,1
8,6,1,0.1,-0.0490319084362115,1.554027026792,-2.09610134869898,7,12,7,2,0
8,7,1,0.1,1.08193163226012,-0.222003860970287,-0.254861699629438,7,8,7,1,1
8,8,1,0.1,1.17353615580562,-0.222003860970287,0.209752802160366,3,8,3,2,2
8,9,1,0.1,-1.06020491834228,-0.222003860970287,-4.04543496255485,3,8,7,1,2
8,10,1,0.1,-0.817100605856149,-0.222003860970287,-0.599373523206867,7,8,3,1,0
8,11,1,0.1,-0.891088874873666,-0.222003860970287,-0.480936951820663,3,8,7,1,0
8,12,1,0.1,0.204642156766704,-0.222003860970287,1.68434755591421,7,8,7,1,0
8,13,1,0.1,-0.426019755334988,-0.222003860970287,-2.56723421097801,7,8,3,1,1
8,14,1,0.1,-0.820623856761745,-0.222003860970287,-1.5144640881082,3,12,7,2,2
8,15,1,0.1,-0.915751631212838,-0.81401415689105,-0.158181972655943,3,10,7,2,1
8,16,1,0.1,0.704943785361342,-0.222003860970287,0.185940967127723,7,12,7,2,2
8,17,1,0.1,0.641525269060613,3.3300579145543,-0.384276679922447,7,10,7,2,1
8,18,1,0.1,-0.993263151135951,1.554027026792,1.69891459386278,3,12,3,1,2
8,19,1,0.1,-0.140636431981709,-0.222003860970287,1.66847557833419,7,12,3,2,1
8,20,1,0.1,-1.05315841653108,-0.222003860970287,-1.01662317473338,3,12,3,1,0
8,21,1,0.1,-0.898135376684858,1.554027026792,1.15515693511429,7,8,7,1,2
8,22,1,0.1,-0.947460889363202,-0.81401415689105,1.51935700680853,3,10,3,2,1
8,23,1,0.1,-0.95803064207999,-0.81401415689105,-2.9741598059988,7,10,3,1,2
8,24,1,0.1,-0.239287457338398,-0.222003860970287,-0.708496953429208,3,12,7,2,0
9,1,1,0.1,0.260359713264582,-0.375540841706121,0.69045431786901,7,8,7,1,0
9,2,1,0.1,0.872162075787297,0.706016782407506,0.720850179601707,3,8,7,1,2
9,3,1,0.1,0.0506971058832025,0.706016782407506,0.196600909378757,3,12,3,2,2
9,4,1,0.1,0.229425885946018,-0.375540841706121,0.640974677636869,7,12,3,2,2
9,5,1,0.1,0.555949618753085,-0.375540841706121,-0.092378878508219,7,8,3,1,1
9,6,1,0.1,-0.45455540698668,-0.375540841706121,0.565079560063709,7,8,7,1,2
9,7,1,0.1,0.188180782854599,-0.736060049743996,-3.1262316788359,7,10,7,2,1
9,8,1,0.1,3.27468933086245,-0.375540841706121,2.12370951386834,3,8,7,2,2
9,9,1,0.1,0.0575712897317723,3.95068965474839,-0.0297136312994307,3,12,7,1,1
9,10,1,0.1,-0.433932855440971,0.706016782407506,0.368560626632882,7,12,3,1,0
9,11,1,0.1,1.06463922354725,-0.736060049743996,1.09103400733669,3,10,3,2,0
9,12,1,0.1,-0.884191897522294,-0.375540841706121,-1.27009058771595,7,8,7,1,1
9,13,1,0.1,-0.976993379477987,0.706016782407506,-0.422007657930381,3,12,3,1,1
9,14,1,0.1,0.896221719257292,-0.375540841706121,0.788230319981179,3,8,3,1,0
9,15,1,0.1,-0.578290716260937,0.706016782407506,0.0488160306708976,7,8,3,2,1
9,16,1,0.1,-0.949496644083708,-0.375540841706121,0.337626885217094,3,12,3,2,1
9,17,1,0.1,-0.743271128626613,-0.736060049743996,1.25431706810438,7,10,3,2,0
9,18,1,0.1,-0.935748276386568,0.706016782407506,-1.5515434119094,3,12,7,1,0
9,19,1,0.1,0.384095022538839,-0.736060049743996,-0.308745077836485,3,10,7,2,0
9,20,1,0.1,1.22618254398864,-0.375540841706121,0.662027665101464,3,12,3,1,2
9,21,1,0.1,-0.616098727428071,-0.375540841706121,-1.5072220191478,3,8,7,2,1
9,22,1,0.1,-0.66421801436806,-0.375540841706121,0.760438007293344,7,8,7,2,2
9,23,1,0.1,-1.21071563032936,-0.375540841706121,-1.38862034759776,7,8,3,1,2
9,24,1,0.1,-0.612661635503786,-0.736060049743996,0.670365715614569,7,10,7,2,0
10,1,1,0.1,0.296138490004323,-0.435642635968827,0.182309835369151,7,12,3,1,2
10,2,1,0.1,-0.863279046458227,-0.91088914793482,0.0934094634681532,7,10,3,1,0
10,3,1,0.1,-0.850710834680855,0.990096899929152,-0.241165357662367,7,12,7,1,1
10,4,1,0.1,0.726599743379308,-0.435642635968827,0.49751141349535,7,8,7,2,2
10,5,1,0.1,-0.0212088573743149,-0.435642635968827,1.2389831184537,7,12,7,2,1
10,6,1,0.1,1.78232953267854,0.990096899929152,-0.351723553567253,7,12,7,1,2
10,7,1,0.1,0.113899419232432,0.990096899929152,0.965754999000029,3,8,3,1,0
10,8,1,0.1,0.393542131278955,-0.91088914793482,0.232499860987364,3,10,7,1,2
10,9,1,0.1,-0.341698257697296,2.41583643582713,1.53724936600623,3,10,3,2,0
10,10,1,0.1,-0.401397263639812,-0.91088914793482,-0.0828776936577016,7,10,3,2,0
10,11,1,0.1,-0.0777658103724881,0.990096899929152,0.229419357742548,7,8,7,2,0
10,12,1,0.1,0.73916795515668,-0.435642635968827,1.50542190179027,3,12,7,2,2
10,13,1,0.1,-0.674755869797649,-0.91088914793482,-0.259990074541617,7,10,3,1,1
10,14,1,0.1,-0.995245270120631,-0.435642635968827,0.246896563359723,3,8,7,2,1
10,15,1,0.1,2.75008183953617,-0.91088914793482,1.55208680832969,7,10,7,1,0
10,16,1,0.1,0.54750272555176,-0.435642635968827,-0.835907473902271,3,12,3,2,2
10,17,1,0.1,0.849139808208683,-0.435642635968827,1.16133288650414,3,8,3,2,1
10,18,1,0.1,-0.847568781736512,-0.435642635968827,-1.00399029635162,3,12,3,1,2
10,19,1,0.1,-1.33772904105401,0.990096899929152,-1.17709461510793,3,12,7,1,1
10,20,1,0.1,0.054200413289916,2.41583643582713,0.313250469809538,3,10,7,2,0
10,21,1,0.1,-1.3440131469427,-0.435642635968827,0.714140742013601,7,12,3,2,1
10,22,1,0.1,1.07536762020138,-0.435642635968827,0.884625195751034,3,8,7,1,0
10,23,1,0.1,-0.800437987571368,-0.435642635968827,1.43475929854886,3,8,3,1,1
10,24,1,0.1,-0.772159511072281,-0.435642635968827,-0.80760687193276,7,8,3,2,2
12,1,1,0.1,1.63379658227562,-0.0687084700658151,4.35456408081468,7,8,7,2,2
12,2,1,0.1,1.03887795843342,-0.0687084700658151,5.18822005009007,3,8,7,1,2
12,3,1,0.1,0.997957629809359,-0.0687084700658151,4.21195015446434,7,12,3,2,2
12,4,1,0.1,1.58343310089215,-0.0687084700658151,5.49470241339386,3,12,7,2,2
12,5,1,0.1,-0.558588716698391,-0.893210110855586,2.57053914176333,3,10,7,2,1
12,6,1,0.1,0.946020289632659,-0.0687084700658151,4.47789038154688,7,8,3,1,0
12,7,1,0.1,1.61018870037712,-0.0687084700658151,5.25923179187216,3,8,3,2,0
12,8,1,0.1,0.340084654237832,-0.0687084700658151,4.59985005584534,3,8,3,2,1
12,9,1,0.1,0.333789219064899,-0.0687084700658151,4.8495983886982,3,8,7,1,1
12,10,1,0.1,0.920838548940926,-0.893210110855586,5.0369788802432,7,10,3,1,2
12,11,1,0.1,0.90352610221536,2.4047964523035,4.53235434382407,3,12,3,1,1
12,12,1,0.1,-0.234373805292328,2.4047964523035,4.64669134218531,7,12,3,1,1
12,13,1,0.1,-1.11416087070975,-0.0687084700658151,4.22561484877903,7,8,3,2,1
12,14,1,0.1,-0.324083756506627,-0.0687084700658151,2.5098993347682,3,12,7,2,0
12,15,1,0.1,-0.621543068427724,-0.0687084700658151,3.74178505905924,7,8,7,2,0
12,16,1,0.1,0.417203735106265,-0.0687084700658151,3.8829123442265,3,12,3,2,2
12,17,1,0.1,-0.659315679465324,-0.893210110855586,4.4714390183583,3,10,3,1,2
12,18,1,0.1,-0.846604875860088,-0.893210110855586,1.90772736702236,3,10,3,1,0
12,19,1,0.1,-1.26997289123985,-0.893210110855586,2.39201165414605,7,10,7,2,1
12,20,1,0.1,-1.03074635466839,-0.893210110855586,2.28454985448994,3,10,7,1,0
12,21,1,0.1,-0.819849276375122,-0.893210110855586,1.1564970668559,7,10,7,1,1
12,22,1,0.1,-0.936314827074387,-0.0687084700658151,2.9123424355702,7,8,7,1,2
12,23,1,0.1,-0.99454760242402,2.4047964523035,3.60753040747298,7,12,7,1,0
12,24,1,0.1,-1.31561479624362,-0.0687084700658151,4.43138809187183,7,8,3,2,0
13,1,1,0.1,0.786978041941942,3.07487454701057,1.0998555145103,7,10,7,1,1
13,2,1,0.1,0.495618884396345,-0.229468249776909,0.124377775837247,3,8,3,1,1
13,3,1,0.1,-0.376146213974209,1.42270314861683,-0.388534000087974,3,12,7,1,0
13,4,1,0.1,0.958093737643324,-0.229468249776909,0.927056089908978,3,8,7,2,1
13,5,1,0.1,1.40669434529289,-0.229468249776909,1.18075094336345,7,12,3,1,2
13,6,1,0.1,0.810101784604291,-0.780192049241489,0.325750888267729,7,10,3,2,2
13,7,1,0.1,1.27951376064997,-0.780192049241489,-1.46982494892952,3,10,3,2,2
13,8,1,0.1,1.39744484822795,1.42270314861683,0.79313240214843,7,12,3,1,1
13,9,1,0.1,0.49793125866258,1.42270314861683,0.975218600589161,3,12,7,2,2
13,10,1,0.1,0.523367375591164,-0.780192049241489,-1.37115712184338,3,10,7,2,0
13,11,1,0.1,0.375375422552131,-0.229468249776909,0.627060640104678,7,12,3,1,0
13,12,1,0.1,1.19164353853305,-0.229468249776909,0.973212797967136,7,12,7,2,2
13,13,1,0.1,0.363813551220956,-0.229468249776909,1.12406832160621,3,8,3,2,0
13,14,1,0.1,-0.850182938552362,-0.780192049241489,-0.576669447524956,3,10,3,2,1
13,15,1,0.1,-1.11379360490314,-0.229468249776909,-0.582229060671703,3,8,3,1,2
13,16,1,0.1,0.449371399071647,-0.780192049241489,0.889928696232406,7,10,7,1,2
13,17,1,0.1,0.0886410135390041,-0.229468249776909,1.15141640410386,7,12,3,2,1
13,18,1,0.1,-1.7011366685268,-0.780192049241489,-0.91626238455718,3,10,3,1,0
13,19,1,0.1,-0.998174891591396,-0.229468249776909,1.01592217794591,7,8,7,1,0
13,20,1,0.1,-0.713752856844504,1.42270314861683,1.66694609080967,3,12,7,1,1
13,21,1,0.1,-1.05367187398103,-0.780192049241489,0.735625848430223,3,10,7,1,2
13,22,1,0.1,-1.33809390872792,-0.229468249776909,-0.97678233649852,7,12,7,2,1
13,23,1,0.1,-1.4490878735072,-0.780192049241489,-0.316906848536829,7,10,7,2,0
13,24,1,0.1,-1.03054813131868,-0.229468249776909,0.397039502016932,7,8,3,2,0
14,2,1,0.1,-0.315219554572394,-0.268182305786454,4.58226807908165,3,8,7,1,2
14,3,1,0.1,1.56452084710522,1.50182091240414,6.27997938252912,7,12,7,2,2
14,4,1,0.1,0.895953384652873,-0.858183378516652,5.53630853750859,7,10,3,1,1
14,10,1,0.1,-0.765083789141779,1.50182091240414,3.96102666818277,3,12,3,1,2
14,11,1,0.1,-0.994860598183372,-0.268182305786454,3.38299572763548,7,8,7,2,1
14,16,1,0.1,-0.456407714344939,-0.268182305786454,3.73958578466405,7,12,7,1,1
14,17,1,0.1,-0.665421558714099,-0.858183378516652,5.30435519720457,7,10,7,2,0
14,19,1,0.1,0.513914834680103,-0.268182305786454,6.56989998766282,7,8,3,2,2
14,20,1,0.1,-0.986555412314399,1.50182091240414,5.98044678175928,3,12,3,1,1
14,22,1,0.1,1.71262999510191,-0.858183378516652,4.59667451155306,7,10,3,1,0
14,24,1,0.1,-0.503470434269121,-0.858183378516652,4.61814909512456,7,10,7,1,2
15,1,1,0.1,1.08278858340077,-0.715491385636572,-1.97244489201623,3,8,7,2,2
15,2,1,0.1,0.64626485667867,0.946295058422562,-1.91964627403134,3,10,7,1,0
15,3,1,0.1,2.21932333135292,0.115401836392995,-0.618761043760017,3,12,3,2,0
15,4,1,0.1,1.31874735460191,0.115401836392995,-1.31064935689892,3,12,3,1,0
15,5,1,0.1,0.249067591823422,0.115401836392995,-3.58179779413277,7,12,7,1,1
15,6,1,0.1,2.44741681018068,-0.99245579297976,-0.357110156953671,3,10,3,1,2
15,7,1,0.1,-0.671171615861012,-0.715491385636572,-1.93886381120455,7,8,3,1,0
15,8,1,0.1,-0.710498077727868,2.6080815024817,-1.07255629394678,3,12,7,1,1
15,9,1,0.1,1.01593359822712,-0.715491385636572,-2.07438589491175,3,8,7,1,2
15,10,1,0.1,-0.226782596765537,0.946295058422562,-4.19345995145358,7,10,3,2,0
15,11,1,0.1,0.103559682916055,-0.715491385636572,-6.05342393321916,3,8,7,2,0
15,12,1,0.1,0.426036670224275,-0.715491385636572,-4.54500985868169,7,8,3,1,2
15,13,1,0.1,-0.0340829336179419,-0.715491385636572,-2.35917653997602,7,8,7,1,2
15,14,1,0.1,-0.970052726049118,0.115401836392995,-3.07066526511735,3,12,3,2,2
15,15,1,0.1,-1.1116279887698,0.115401836392995,-7.00219560875897,7,12,3,2,2
15,16,1,0.1,-0.66330632348764,0.115401836392995,-2.28738680490742,3,12,7,2,1
15,17,1,0.1,-0.541394291700386,2.6080815024817,-4.34307949101319,3,12,3,1,1
15,18,1,0.1,-1.02117712647603,0.115401836392995,-6.61570487755355,7,12,7,2,2
15,19,1,0.1,-0.266109058632393,-0.715491385636572,-0.284467812889278,7,8,7,2,0
15,20,1,0.1,-0.596451338313985,-0.715491385636572,-2.54727933890851,7,8,3,2,1
15,21,1,0.1,-0.616114569247413,-0.715491385636572,-3.98755933374421,3,8,3,2,1
15,22,1,0.1,-0.293637581939192,0.946295058422562,-3.39264076486414,7,10,7,2,1
15,23,1,0.1,-0.793083647648266,-0.715491385636572,-3.79917592483775,7,8,3,1,1
15,24,1,0.1,-0.993648603169232,-0.715491385636572,-4.04302823550467,7,8,7,1,0
16,1,1,0.1,-0.0767076766725516,-0.300796416641907,2.79033269733746,3,12,7,2,2
16,2,1,0.1,-0.0369333258053026,-0.300796416641907,2.22159141547028,3,8,7,1,2
16,3,1,0.1,1.44202314929934,-0.300796416641907,3.3470610197076,7,12,7,2,2
16,4,1,0.1,-0.737448933936647,1.76180758318831,2.68203426696621,7,10,3,1,1
16,5,1,0.1,-0.0734607908874701,-0.300796416641907,3.15328186089732,3,12,3,2,1
16,6,1,0.1,0.620561045673711,-0.300796416641907,3.34405436834703,7,8,3,2,1
16,7,1,0.1,-0.0109582395246502,-0.300796416641907,2.71101700170555,7,8,3,2,0
16,8,1,0.1,-0.339705425264157,-0.644563749946943,2.05574560827084,3,10,7,2,1
16,9,1,0.1,-0.334023375140264,-0.300796416641907,1.69160121671501,3,8,3,1,0
16,10,1,0.1,-1.01181078277604,0.730505583273202,2.967295256664,3,12,3,1,2
16,11,1,0.1,2.18961860131437,-0.300796416641907,3.96003141416781,7,8,7,2,1
16,12,1,0.1,-0.677381546912638,-0.644563749946943,2.21049238234559,7,10,3,1,2
16,13,1,0.1,0.749624755630703,-0.300796416641907,3.91566001591852,3,8,7,2,0
16,14,1,0.1,-0.898981501744454,0.730505583273202,1.27591828287223,3,12,3,2,2
16,15,1,0.1,-0.22038237266241,-0.644563749946943,3.14958132619917,3,10,7,1,0
16,16,1,0.1,0.573481201790029,3.82441158301853,2.68168369349677,7,12,7,1,1
16,17,1,0.1,0.221194094108681,-0.644563749946943,3.10039351681138,7,10,7,2,0
16,18,1,0.1,-0.839725836166716,-0.300796416641907,2.55473045587408,7,12,7,1,0
16,19,1,0.1,-0.0702139051023885,-0.300796416641907,3.08053104493283,7,8,3,2,2
16,20,1,0.1,-0.574292923236299,0.730505583273202,2.44637419036347,3,12,3,1,1
16,21,1,0.1,2.82925510097544,-0.300796416641907,3.85707733278475,3,12,3,2,0
16,22,1,0.1,-0.585657023484085,-0.644563749946943,2.07551601450957,7,10,3,1,0
16,23,1,0.1,-1.0183045543462,-0.300796416641907,1.51804343132165,3,8,7,1,1
16,24,1,0.1,-1.11976973513,-0.644563749946943,1.84381482106473,7,10,7,1,2
17,1,1,0.1,1.15396500324483,-0.25993450567827,2.96440659264411,3,8,7,2,1
17,2,1,0.1,2.26490879391686,1.07687152352426,4.28282158996077,7,12,7,2,1
17,3,1,0.1,0.419764882326164,-0.25993450567827,4.59571368164118,3,8,3,2,2
17,4,1,0.1,1.66186175939697,-0.25993450567827,3.56025492188561,7,8,7,1,1
17,5,1,0.1,-0.633317252581696,-0.705536515412446,2.10131423277514,7,10,3,1,2
17,6,1,0.1,0.574062631030612,2.41367755272679,2.81296385592952,7,10,3,1,1
17,7,1,0.1,-0.818474551027034,-0.705536515412446,2.01057870686021,3,10,3,1,2
17,8,1,0.1,-0.94705600828074,-0.705536515412446,3.1958171594719,3,10,7,2,0
17,9,1,0.1,-1.19264659163532,-0.25993450567827,2.85993781421283,7,8,3,2,0
17,10,1,0.1,1.63228802422862,-0.25993450567827,3.58318740699747,7,8,3,2,1
17,11,1,0.1,-0.875050392218665,-0.705536515412446,2.38962925721421,3,10,3,2,0
17,12,1,0.1,-0.68860727920079,-0.25993450567827,2.5426113131076,7,8,7,1,2
17,13,1,0.1,0.620351955641947,-0.705536515412446,4.43354575630912,3,10,7,1,1
17,14,1,0.1,-0.76318452440794,-0.705536515412446,2.80670362251968,7,10,3,2,2
17,15,1,0.1,-0.148565158735221,-0.25993450567827,3.10360061673401,3,12,3,1,1
17,16,1,0.1,-0.692464722918401,-0.705536515412446,2.96595712043675,3,10,3,2,1
17,17,1,0.1,-0.00583974118360595,-0.25993450567827,3.85940874597709,7,8,7,2,0
17,18,1,0.1,-0.299005463722058,2.41367755272679,3.26148793339845,7,10,3,1,0
17,19,1,0.1,1.0523856520144,-0.25993450567827,4.00230569558542,3,12,7,1,2
17,20,1,0.1,-0.439159252128598,-0.25993450567827,3.62910647860816,7,8,7,1,0
17,21,1,0.1,-0.884051094226424,2.41367755272679,3.58055558000035,3,10,3,1,0
17,22,1,0.1,0.826082287247878,-0.25993450567827,2.86450514337469,7,8,7,2,2
17,23,1,0.1,-0.929054604265221,-0.25993450567827,3.32392535526359,3,12,7,1,0
17,24,1,0.1,-0.889194352516572,-0.25993450567827,2.07538486859054,3,12,7,2,2
18,1,1,0.1,2.06919839577808,0.295163026345123,1.48183322067278,7,12,3,1,1
18,2,1,0.1,0.199849867580136,-0.885489079035371,0.961968535751085,3,10,7,1,1
18,3,1,0.1,-0.0765580771875939,-0.885489079035371,1.14978586885528,7,10,3,2,2
18,4,1,0.1,1.84232019833867,0.295163026345123,2.36212680528198,3,8,7,1,2
18,5,1,0.1,0.599283313776277,3.83711934248661,2.3695679079801,3,12,3,1,1
18,6,1,0.1,0.985934889694142,0.295163026345123,2.60086180608162,3,12,3,2,0
18,7,1,0.1,0.0256968850386183,0.295163026345123,1.90979674298781,7,8,7,1,1
18,8,1,0.1,-0.599017024812147,0.295163026345123,0.574881286283352,7,12,3,1,2
18,9,1,0.1,-0.848263495238539,0.295163026345123,0.101184411495893,3,8,3,1,0
18,10,1,0.1,-0.490371127446796,-0.885489079035371,0.976817750316009,7,10,3,2,1
18,11,1,0.1,-0.298643073272648,-0.885489079035371,1.82258494796395,3,10,7,2,1
18,12,1,0.1,0.695147340863351,0.295163026345123,-0.205264785448011,7,8,3,2,0
18,13,1,0.1,0.01930594989948,-0.885489079035371,1.91436674683297,3,10,3,2,2
18,14,1,0.1,0.271747887895441,-0.885489079035371,2.44506006003445,7,10,7,2,1
18,15,1,0.1,-1.00004820479307,0.295163026345123,0.861688254812231,7,12,7,2,0
18,16,1,0.1,-1.03999154941269,-0.885489079035371,-0.435051667311599,3,10,3,2,1
18,17,1,0.1,2.36477914596322,-0.885489079035371,2.14468303576682,7,10,7,2,2
18,18,1,0.1,-0.229940520526912,0.295163026345123,1.79976415829561,3,12,7,2,2
18,19,1,0.1,-0.522325803142488,0.295163026345123,1.08740058646462,7,8,7,1,0
18,20,1,0.1,-0.43924364633369,0.295163026345123,-0.0842264733806507,3,8,3,1,2
18,21,1,0.1,-1.18858079139765,0.295163026345123,-1.44907632138474,3,8,7,1,0
18,22,1,0.1,-1.193373992752,0.295163026345123,1.08905023323691,3,8,7,2,0
18,23,1,0.1,-0.189997175907298,0.295163026345123,-0.425785991390415,7,8,3,1,0
18,24,1,0.1,-0.956909392603889,-0.885489079035371,-0.966063515484982,7,10,7,1,2
19,1,1,0.1,1.06182546496613,-0.978945010372561,2.58507542200369,3,10,7,2,2
19,2,1,0.1,-0.215589337084942,1.6315750172876,2.26867503000532,7,12,7,2,0
19,3,1,0.1,2.63505186781269,-0.326315003457521,2.89258327174282,7,12,7,2,1
19,4,1,0.1,2.63300472870684,-0.326315003457521,2.56941884072866,3,12,3,2,0
19,5,1,0.1,-0.370148339576699,1.6315750172876,0.857565474236527,3,12,7,1,1
19,6,1,0.1,0.0239259382996345,-0.326315003457521,1.43647159903024,3,12,3,1,0
19,7,1,0.1,0.334067512836073,-0.326315003457521,1.7155015471411,7,8,3,1,1
19,8,1,0.1,-0.673124927242658,1.6315750172876,-0.35802965544558,7,12,3,1,0
19,9,1,0.1,-0.332276266118454,-0.978945010372561,1.07338707663095,3,10,3,2,2
19,10,1,0.1,-0.217636476190793,-0.978945010372561,2.01656134561303,7,10,3,2,2
19,11,1,0.1,1.39755627832571,-0.326315003457521,3.09578154864572,7,8,7,1,2
19,12,1,0.1,0.455872289634213,-0.326315003457521,2.59571584728121,7,12,3,1,2
19,13,1,0.1,-0.0241818306878659,-0.326315003457521,1.84227832321915,3,8,3,1,2
19,14,1,0.1,-0.201259363343984,-0.326315003457521,1.03938709150682,3,8,3,1,1
19,15,1,0.1,-0.686431331430691,1.6315750172876,-0.726005215878592,3,12,7,1,0
19,16,1,0.1,-0.707926292042127,-0.326315003457521,1.47712793359412,7,8,3,2,1
19,17,1,0.1,-0.729421252653563,-0.978945010372561,1.06878201639152,7,10,7,1,0
19,18,1,0.1,-0.517542355197976,-0.326315003457521,0.477873443368537,3,12,7,2,1
19,19,1,0.1,-0.954606554297182,1.6315750172876,0.853591697251695,7,12,7,1,1
19,20,1,0.1,-0.0159932742644616,-0.978945010372561,2.00542356726522,7,10,7,2,2
19,21,1,0.1,-0.869650281404362,-0.326315003457521,1.6697578678322,7,12,3,2,0
19,22,1,0.1,-0.54415516357404,-0.326315003457521,2.03226008336474,3,12,7,2,0
19,23,1,0.1,-0.575885819714732,1.6315750172876,1.0964509478559,3,12,7,1,2
19,24,1,0.1,-0.905475215756756,-0.978945010372561,0.158906818430724,3,10,3,2,1
20,1,1,0.1,0.0920476412209141,-0.599979131523567,-0.729979325836312,7,10,3,1,2
20,2,1,0.1,1.42930688743486,-0.279990261377665,1.69603762182677,3,12,3,1,2
20,3,1,0.1,-0.670989819035713,-0.279990261377665,0.674726216444937,3,12,3,2,0
20,4,1,0.1,0.589632477021451,-0.599979131523567,1.4461905512202,3,10,7,1,2
20,5,1,0.1,0.771784068698434,1.63994295949775,0.110283557921947,7,10,3,1,0
20,6,1,0.1,0.582968394399123,-0.599979131523567,1.15975284249971,3,10,7,1,1
20,7,1,0.1,0.0187427323752992,1.63994295949775,1.88287893046718,3,10,7,1,0
20,8,1,0.1,1.27270094581013,0.679976349060042,2.65095815427627,7,12,3,1,1
20,9,1,0.1,0.30529828513543,-0.599979131523567,1.34350488531627,3,10,3,1,1
20,10,1,0.1,2.72991367922599,-0.279990261377665,2.6882202077321,3,12,3,2,2
20,11,1,0.1,-0.673211179909823,-0.279990261377665,0.352190623827659,3,8,3,1,0
20,12,1,0.1,0.100933084717352,-0.279990261377665,0.239760365866378,3,8,3,2,1
20,13,1,0.1,0.648498540185354,-0.599979131523567,1.75687563615049,7,10,7,1,0
20,14,1,0.1,0.485228515938303,-0.279990261377665,2.11115818869133,3,8,7,2,1
20,15,1,0.1,0.785112233943091,-0.599979131523567,2.4826355477199,7,10,3,2,1
20,16,1,0.1,-1.04639980676023,3.55987618037316,-1.11539133870524,7,12,7,1,1
20,17,1,0.1,-1.11637267429468,0.679976349060042,-1.90601153030604,7,12,7,2,1
20,18,1,0.1,-0.887572504261393,-0.279990261377665,-1.46640963644232,7,12,3,2,2
20,19,1,0.1,-0.812046234541669,-0.279990261377665,-3.07471615600253,7,12,7,1,2
20,20,1,0.1,-1.06639205462721,-0.279990261377665,-0.779928087643003,7,12,3,2,0
20,21,1,0.1,-1.04862116763433,-0.599979131523567,2.04394491451758,7,10,7,2,2
20,22,1,0.1,-1.15635717002865,-0.279990261377665,-6.04016709285143,3,8,7,2,0
20,23,1,0.1,-0.492170268669895,-0.599979131523567,2.37183508223082,3,10,7,2,2
20,24,1,0.1,-0.842034606342148,-0.599979131523567,0.54201761662637,7,10,7,2,0
21,1,1,0.1,1.48226186016653,-0.435494170355693,-0.820541530285562,3,12,7,2,2
21,2,1,0.1,1.35116110599867,-0.435494170355693,-0.542145688057638,3,8,7,1,2
21,3,1,0.1,0.593690081917666,-0.435494170355693,-0.361933293554503,7,12,7,2,2
21,4,1,0.1,1.70367646720559,2.17747085177846,-1.89431645187072,7,10,3,1,1
21,5,1,0.1,1.64249611526059,-0.435494170355693,0.59910535391607,3,12,3,2,1
21,6,1,0.1,1.73280996813178,-0.435494170355693,-1.00609873828927,7,8,3,2,1
21,7,1,0.1,-0.830938113373136,-0.435494170355693,-4.72439022638233,7,8,3,2,0
21,8,1,0.1,-0.868811664577186,2.17747085177846,-3.95543471469277,3,10,7,2,1
21,9,1,0.1,0.748097636826485,-0.435494170355693,-2.8001391221505,3,8,3,1,0
21,10,1,0.1,-0.0122867373471331,-0.435494170355693,-4.95333915453009,3,12,3,1,2
21,11,1,0.1,0.0314135140421553,-0.435494170355693,0.433413190378586,7,8,7,2,1
21,12,1,0.1,-0.428895800591682,-0.870988340711385,0.0181313282397822,7,10,3,1,2
21,13,1,0.1,-0.297795046423817,-0.435494170355693,-0.792829599216196,3,8,7,2,0
21,14,1,0.1,-0.70275070929789,-0.435494170355693,-6.34124956259573,3,12,3,2,2
21,15,1,0.1,-0.679443908556936,-0.870988340711385,-1.16524740504088,3,10,7,1,0
21,16,1,0.1,-0.423069100406444,0.870988340711385,-10.2387209897104,7,12,7,1,1
21,17,1,0.1,-0.676530558464317,-0.870988340711385,-0.369562460126295,7,10,7,2,0
21,18,1,0.1,0.520856329602185,-0.435494170355693,-2.81460477967719,7,12,7,1,0
21,19,1,0.1,-1.04943937031958,0.870988340711385,-2.79763778995918,7,8,3,2,2
21,21,1,0.1,-1.08148622133839,0.870988340711385,-1.5740642428104,3,12,3,2,0
21,22,1,0.1,-1.11061972226458,2.17747085177846,-5.80581346699431,7,10,3,1,0
21,23,1,0.1,-0.714404109668367,-0.435494170355693,-5.05405107659721,3,8,7,1,1
21,24,1,0.1,-0.929992016522189,-0.870988340711385,-1.1776296742379,7,10,7,1,2
22,1,1,0.1,0.0951742196796061,-0.419322312840655,5.20567649819916,7,8,7,1,1
22,2,1,0.1,0.408982923028798,1.0273396664596,7.24607420964036,3,12,7,2,2
22,3,1,0.1,3.29831915508538,1.0273396664596,7.55891273454296,3,12,3,1,0
22,4,1,0.1,-0.28751932099014,-0.419322312840655,6.89773697009316,3,8,3,1,2
22,5,1,0.1,0.183193734033648,-0.419322312840655,7.4527322743753,7,12,3,1,1
22,6,1,0.1,-0.670212861659885,-0.419322312840655,6.17061651402384,7,8,7,2,2
22,7,1,0.1,0.711310820157897,-0.901542972607407,4.86141858935057,7,10,3,2,0
22,8,1,0.1,-0.773540117640717,-0.419322312840655,4.50799300024984,7,12,3,2,1
22,9,1,0.1,-0.624289636779516,1.0273396664596,2.96789369381551,7,12,7,1,2
22,10,1,0.1,1.23560097087545,2.47400164575986,7.30018403100437,3,10,3,1,1
22,11,1,0.1,0.0377701885791443,-0.419322312840655,5.9529008897182,7,8,3,1,0
22,12,1,0.1,-0.0502493257748972,-0.901542972607407,7.13194780570952,3,10,3,2,0
22,13,1,0.1,0.477867760349352,-0.419322312840655,4.64028552046095,7,8,7,1,0
22,14,1,0.1,-1.19067607697074,-0.419322312840655,5.34666069044581,3,8,3,2,2
22,15,1,0.1,1.12844677948792,-0.419322312840655,7.6548688111186,3,12,7,2,0
22,16,1,0.1,-0.448250608071433,2.47400164575986,5.41093976192355,7,10,7,2,1
22,17,1,0.1,-1.08734882098991,-0.419322312840655,-5.07145877535254,7,8,3,1,2
22,18,1,0.1,0.864388236425795,1.0273396664596,7.35455694128021,3,12,3,2,1
22,19,1,0.1,-0.635770442999608,-0.901542972607407,6.70829139086919,3,10,7,1,2
22,21,1,0.1,-0.727616892760347,-0.901542972607407,6.43114970291597,7,10,7,2,0
22,22,1,0.1,-0.90365592146843,-0.419322312840655,4.43697868419049,7,8,3,2,2
22,23,1,0.1,-0.597501088932634,-0.419322312840655,5.0983641494582,3,12,7,2,1
22,24,1,0.1,-0.444423672664735,-0.419322312840655,5.40230263883019,3,8,7,1,1
1,1,1,0.5,2.28434771725881,-0.255609437163093,0.518268326398981,7,8,3,1,0
1,3,1,0.5,-0.171026510066587,-0.843511142638205,0.379828236299865,3,10,3,1,1
1,4,1,0.5,1.60070853734751,1.50809567926225,0.547153409203098,3,12,3,1,2
1,5,1,0.5,-0.385782273389508,-0.255609437163093,-0.373751357964005,7,12,3,1,2
1,6,1,0.5,0.0186744142019933,-0.255609437163093,0.69264451844085,7,12,3,2,0
1,7,1,0.5,-0.0672278911271752,-0.255609437163093,-0.230475219022111,7,12,7,2,0
1,8,1,0.5,-0.471684578718677,-0.255609437163093,-0.414613363512282,3,12,3,2,0
1,9,1,0.5,-0.428733426054093,-0.255609437163093,-0.599023491917663,3,8,7,2,0
1,10,1,0.5,-0.740129282872328,-0.255609437163093,-2.87480886588989,7,8,3,2,2
1,11,1,0.5,-0.840348639089692,-0.843511142638205,-0.258421094390884,7,10,7,1,1
1,12,1,0.5,-0.718653706540036,-0.255609437163093,-0.720355746997562,7,8,7,1,0
1,13,1,0.5,-0.16386798462249,1.50809567926225,0.604232327321203,3,12,7,1,0
1,14,1,0.5,-0.919092418974763,-0.255609437163093,-0.250375313929657,7,8,3,1,1
1,15,1,0.5,1.10677028170479,-0.843511142638205,0.178437445315008,3,10,7,1,2
1,16,1,0.5,0.240588702969012,-0.843511142638205,-0.427127492944656,3,10,7,2,2
1,17,1,0.5,2.69954219301646,1.50809567926225,1.12865896132727,7,12,7,1,2
1,18,1,0.5,0.430289627237592,-0.255609437163093,0.566983765274278,7,8,7,2,1
1,19,1,0.5,-0.679281816597501,-0.255609437163093,-0.923129715217137,7,8,3,2,1
1,20,1,0.5,-0.546849095881699,-0.843511142638205,-3.80288514007731,7,10,7,2,2
1,21,1,0.5,-0.443050476942287,-0.255609437163093,0.524554758044619,3,8,3,2,2
1,22,1,0.5,-0.29987996806034,-0.255609437163093,-0.113079024312675,3,8,3,2,1
1,23,1,0.5,-0.589800248546284,3.27180079568758,0.804950804739456,3,10,3,1,0
1,24,1,0.5,-0.915513156252714,-0.255609437163093,0.0956466432727355,3,8,7,1,1
2,1,1,0.5,0.464088670255891,-0.420558293861036,1.30816246846315,7,12,3,1,2
2,2,1,0.5,1.02587331658995,1.53300281310635,1.54422879632081,7,10,3,1,0
2,3,1,0.5,0.830743635510334,3.48656392007375,1.38080131922087,7,12,7,1,1
2,4,1,0.5,1.23673926227276,-0.420558293861036,1.50945750443975,7,8,7,2,2
2,5,1,0.5,-0.0221619059828328,-0.420558293861036,1.58439750531952,7,12,7,2,1
2,6,1,0.5,0.674954615938704,0.556222259622659,1.13062842186674,7,12,7,1,2
2,7,1,0.5,1.43029531689206,-0.420558293861036,1.18298447246842,3,8,3,1,0
2,8,1,0.5,1.83943819657513,-0.746151811688934,1.66033078793575,3,10,7,1,2
2,9,1,0.5,0.0816974403982539,-0.746151811688934,1.3993333625287,3,10,3,2,0
2,10,1,0.5,-0.402979509380151,-0.746151811688934,0.474729270934573,7,10,3,2,0
2,11,1,0.5,-0.0945487231575296,-0.420558293861036,1.44034590261287,7,8,7,2,0
2,12,1,0.5,0.169820522176146,0.556222259622659,1.35411333013035,3,12,7,2,2
2,13,1,0.5,-0.989942179079322,1.53300281310635,0.14250585883677,7,10,3,1,1
2,14,1,0.5,1.68050192408286,-0.420558293861036,1.41885338110799,3,8,7,2,1
2,15,1,0.5,-1.0607553697937,-0.746151811688934,0.482754268652495,7,10,7,1,0
2,16,1,0.5,-0.612271828602644,-0.420558293861036,1.52485349311258,3,12,3,2,2
2,17,1,0.5,0.475104055478128,0.556222259622659,1.64442401958604,3,8,3,2,1
2,18,1,0.5,-0.115005867141683,-0.420558293861036,1.4009635826361,3,12,3,1,2
2,19,1,0.5,-0.706689416221813,0.556222259622659,1.42112922515868,3,12,7,1,1
2,20,1,0.5,-1.42268945566718,-0.746151811688934,0.339019872032203,3,10,7,2,0
2,21,1,0.5,-0.635876225507436,-0.420558293861036,0.541908270713594,7,12,3,2,1
2,22,1,0.5,-1.38649604707984,-0.420558293861036,-0.198086441388922,3,8,7,1,0
2,23,1,0.5,-1.20080812476213,-0.420558293861036,0.233616997999985,3,8,3,1,1
2,24,1,0.5,-1.25903230379396,-0.420558293861036,-0.997079757328454,7,8,3,2,2
3,1,1,0.5,3.2587883326523,-0.313103974450949,0.3033902899071,7,8,3,2,0
3,2,1,0.5,0.338950201642425,1.29714503701107,0.830682527755235,3,8,3,1,0
3,3,1,0.5,0.773530760676452,-0.313103974450949,0.782434120821985,3,8,7,2,2
3,4,1,0.5,-0.231436782089736,1.29714503701107,-0.0274700672665899,7,8,3,1,1
3,5,1,0.5,-0.557372201365257,-0.313103974450949,0.0307200529241824,7,8,7,1,1
3,6,1,0.5,-0.163533569740669,2.90739404847309,-2.59747881683691,7,10,7,2,1
3,7,1,0.5,-0.38761417049259,-0.849853644938288,0.334603743539707,7,10,3,1,2
3,8,1,0.5,-0.28575935196899,1.29714503701107,0.388302639791367,7,8,7,2,0
3,9,1,0.5,-0.143162606035949,1.29714503701107,-0.276361195116968,3,12,7,1,1
3,10,1,0.5,-0.808614087056804,-0.849853644938288,-1.83101940712536,7,10,3,2,2
3,11,1,0.5,-0.964791475459657,-0.849853644938288,-2.06919877689823,3,10,7,1,0
3,12,1,0.5,-0.849356014466244,1.29714503701107,-0.67097047333414,3,12,3,1,1
3,13,1,0.5,-0.50983995272091,-0.313103974450949,0.280573993080395,3,12,7,2,0
3,14,1,0.5,0.522288874984905,-0.849853644938288,0.753364460767513,3,10,3,2,2
3,15,1,0.5,-0.910468905580404,-0.849853644938288,-0.613175913686012,7,10,3,2,1
3,16,1,0.5,-0.217856139619923,-0.313103974450949,-0.0646126529726207,3,8,3,1,2
3,17,1,0.5,-0.231436782089736,-0.313103974450949,0.108385522395406,7,8,3,1,0
3,18,1,0.5,0.0605470310112509,-0.313103974450949,-0.874772530925,3,8,3,2,0
3,19,1,0.5,0.0130147823669042,-0.313103974450949,-0.22232371470262,3,8,7,1,2
3,20,1,0.5,0.705627548327385,-0.313103974450949,-0.122062088778658,7,12,7,2,2
3,21,1,0.5,0.352530844112238,-0.313103974450949,-0.267163402895717,3,12,7,2,1
3,22,1,0.5,2.17233693506723,-0.849853644938288,0.858448886795313,3,10,3,2,1
3,23,1,0.5,-1.10059790015779,-0.849853644938288,-0.0397549636833421,7,10,7,1,2
3,24,1,0.5,-0.83577537199643,-0.313103974450949,0.68871031509249,7,12,7,1,0
4,1,1,0.5,-0.00888346395525166,-0.0591726335413945,0.725648845948145,3,8,7,2,1
4,2,1,0.5,2.30747976237662,-0.0591726335413945,1.73573866248236,7,12,7,2,1
4,3,1,0.5,1.46799241860534,-0.0591726335413945,1.37983242549102,3,8,3,2,2
4,4,1,0.5,0.81505781789434,-0.0591726335413945,0.752009042552415,7,8,7,1,1
4,5,1,0.5,0.370884620131757,-0.68048528572603,1.03611521095652,7,10,3,1,2
4,6,1,0.5,0.0954972375189553,3.66870327956642,0.699003420885218,7,10,3,1,1
4,7,1,0.5,-0.144356289272839,-0.68048528572603,1.10990388443495,3,10,3,1,2
4,9,1,0.5,-1.33029872729894,-0.0591726335413945,-0.18637175301939,7,8,3,2,0
4,10,1,0.5,-1.01271489089869,-0.0591726335413945,0.801950673217787,7,8,3,2,1
4,11,1,0.5,-0.424185403863267,-0.68048528572603,0.545863948553101,3,10,3,2,0
4,12,1,0.5,0.21320313492604,-0.0591726335413945,0.358175252416805,7,8,7,1,2
4,13,1,0.5,-0.684026724554378,-0.68048528572603,1.07038401090386,3,10,7,1,1
4,14,1,0.5,-0.746210972241139,-0.68048528572603,-1.80638237022095,7,10,3,2,2
4,15,1,0.5,0.470823589628338,1.80476532301251,0.462756525360312,3,12,3,1,1
4,16,1,0.5,0.262062186679924,-0.68048528572603,0.753386232697648,3,10,3,2,1
4,17,1,0.5,0.981622767055308,-0.0591726335413945,1.02112141728599,7,8,7,2,0
4,19,1,0.5,-1.1348625202834,-0.0591726335413945,-0.343775175017332,3,12,7,1,2
4,21,1,0.5,1.17927984005966,-0.68048528572603,1.10129603229308,3,10,3,1,0
4,22,1,0.5,-1.33029872729894,-0.0591726335413945,0.839802287714384,7,8,7,2,2
4,23,1,0.5,0.0444173197762583,-0.0591726335413945,0.997857479690315,3,12,7,1,0
4,24,1,0.5,-1.3924829749857,-0.0591726335413945,-0.125584737842408,3,12,7,2,2
5,1,1,0.5,2.16756348179368,-0.395008187929654,1.09978027999968,7,8,7,2,2
5,2,1,0.5,1.08347567432217,-0.395008187929654,0.0262575671856989,3,8,7,1,2
5,3,1,0.5,0.18792487684571,-0.395008187929654,-0.13183703948851,7,12,3,2,2
5,4,1,0.5,-0.532555839921067,0.371772412169085,-4.62478718245847,3,12,7,2,2
5,5,1,0.5,1.28547961360258,-0.6506017212959,1.12920996782823,3,10,7,2,1
5,7,1,0.5,0.807403623972285,-0.395008187929654,0.742780499357868,3,8,3,2,0
5,9,1,0.5,0.120590230418908,-0.395008187929654,0.128453169120058,3,8,7,1,1
5,10,1,0.5,-0.956764112409917,-0.6506017212959,-4.18828798006317,7,10,3,1,2
5,11,1,0.5,2.44363553214356,2.6721142124653,1.62140074557045,3,12,3,1,1
5,12,1,0.5,0.369728422198074,2.6721142124653,1.16984012644931,7,12,3,1,1
5,13,1,0.5,0.107123301133548,-0.395008187929654,0.743775814902531,7,8,3,2,1
5,14,1,0.5,-0.24301686028582,-0.395008187929654,-0.705788139943095,3,12,7,2,0
5,15,1,0.5,-0.357485759211383,-0.395008187929654,0.92210658512968,7,8,7,2,0
5,16,1,0.5,-1.07123301133548,-0.395008187929654,1.10488011428654,3,12,3,2,2
5,17,1,0.5,-1.165501516333,-0.6506017212959,-1.19908434747622,3,10,3,1,2
5,18,1,0.5,-0.559489698491788,1.13855301226782,0.577919911840233,3,10,3,1,0
5,19,1,0.5,-0.344018829926022,-0.6506017212959,0.802517880729542,7,10,7,2,1
5,20,1,0.5,-0.707625920630751,-0.6506017212959,-1.67750617524448,3,10,7,1,0
5,21,1,0.5,-0.552756233849107,1.13855301226782,-0.836806255675362,7,10,7,1,1
5,22,1,0.5,-0.822094819556314,-0.395008187929654,-0.169447901886606,7,8,7,1,2
5,23,1,0.5,-0.465221193494265,-0.395008187929654,-0.304024401027084,7,12,7,1,0
5,24,1,0.5,-0.795160960985593,-0.395008187929654,0.467124650284549,7,8,3,2,0
6,1,1,0.5,0.233148016104067,-0.401593372583645,2.02054047146148,3,8,7,2,1
6,2,1,0.5,2.25361710552058,0.912712210417374,1.83299569988894,7,12,3,2,1
6,3,1,0.5,0.111390490191631,0.912712210417374,1.40024217687875,3,8,7,1,0
6,4,1,0.5,0.813702016469159,-0.401593372583645,2.24588139739996,3,8,7,2,0
6,5,1,0.5,-0.336818373312119,-0.839695233583985,1.4040444665759,7,10,7,2,2
6,6,1,0.5,2.91004898435284,2.22701779341839,2.32707138541344,7,10,3,1,1
6,7,1,0.5,-0.0915387196624291,-0.401593372583645,1.99126344486926,3,8,3,1,2
6,8,1,0.5,0.0690400463960008,-0.401593372583645,1.36011492308248,3,8,7,1,2
6,9,1,0.5,0.40784359676104,-0.401593372583645,1.75250671487194,7,12,7,1,0
6,10,1,0.5,-0.66503431272825,-0.839695233583985,1.56362708214819,7,10,7,1,2
6,11,1,0.5,-0.430342270027468,-0.401593372583645,1.15934516412811,7,12,7,2,0
6,12,1,0.5,-0.864434318932674,-0.839695233583985,1.2493704017357,3,10,7,2,2
6,13,1,0.5,-0.118007747034698,-0.401593372583645,0.838394362715898,3,8,3,1,0
6,14,1,0.5,1.42954805333061,-0.839695233583985,2.34320881916031,3,10,3,2,0
6,15,1,0.5,-0.779733431341415,-0.401593372583645,0.766014434548747,3,12,3,2,1
6,16,1,0.5,0.317848903695326,-0.401593372583645,1.99781717178703,7,8,3,2,2
6,17,1,0.5,-1.05677591783783,0.912712210417374,0.338015625863242,3,12,7,1,1
6,18,1,0.5,-0.250352883896041,-0.401593372583645,0.466548172185107,3,12,3,2,2
6,19,1,0.5,-0.966781224772113,2.22701779341839,0.954891836590706,3,10,3,1,1
6,20,1,0.5,-0.91031396637794,2.22701779341839,1.34108057768843,7,10,7,1,1
6,21,1,0.5,-0.403873242655199,-0.839695233583985,1.70153608019069,7,10,3,1,0
6,22,1,0.5,-0.959722817472841,-0.401593372583645,0.699390670524734,7,12,3,1,2
6,23,1,0.5,-0.423283862728196,-0.401593372583645,0.911128662042675,7,8,7,2,1
6,24,1,0.5,-0.289174124042035,-0.401593372583645,0.407957974393547,7,12,3,2,0
7,1,1,0.5,1.46706724705617,-0.290957186981324,1.57956232816893,7,8,7,2,2
7,2,1,0.5,3.76560498367291,-0.290957186981324,1.80791884605462,3,8,7,1,2
7,3,1,0.5,0.939971510647681,-0.290957186981324,1.10700639470279,7,12,3,2,2
7,4,1,0.5,0.085942975707351,-0.290957186981324,-0.200835648321588,3,12,7,2,2
7,6,1,0.5,-0.254334018682937,-0.290957186981324,-0.970300491920789,7,8,3,1,0
7,7,1,0.5,-0.457833005524187,-0.290957186981324,-0.519416385439549,3,8,3,2,0
7,8,1,0.5,-0.368871699801236,-0.290957186981324,-1.54727874465148,3,8,3,2,1
7,9,1,0.5,0.065926681919687,-0.290957186981324,-0.461102826413249,3,8,7,1,1
7,10,1,0.5,-0.331063144868982,2.76409327632257,-1.53167552950689,7,10,3,1,2
7,12,1,0.5,-0.00524236265867385,1.23656804467062,0.695469851323422,7,12,3,1,1
7,13,1,0.5,-0.510097772636421,-0.290957186981324,-0.071488782357594,7,8,3,2,1
7,14,1,0.5,-0.472289217704167,-0.290957186981324,0.927593420734833,3,12,7,2,0
7,15,1,0.5,-0.541234229639454,-0.290957186981324,-3.76541581431286,7,8,7,2,0
7,16,1,0.5,-0.531226082745622,-0.290957186981324,-0.557455542302514,3,12,3,2,2
7,17,1,0.5,-0.294366606258265,-0.800132264198639,-0.731490654700852,3,10,3,1,2
7,19,1,0.5,-0.425584532199618,-0.800132264198639,-0.916266810040781,7,10,7,2,1
7,20,1,0.5,-0.446712842308818,-0.800132264198639,-1.2020578161827,3,10,7,1,0
7,21,1,0.5,-0.430032597485765,2.76409327632257,-0.433280677857737,7,10,7,1,1
7,22,1,0.5,-0.401120173125806,-0.290957186981324,-0.640160789878737,7,8,7,1,2
7,23,1,0.5,-0.516769870565642,-0.290957186981324,-0.827237744144631,7,12,7,1,0
7,24,1,0.5,-0.337735242798203,-0.290957186981324,0.506814380150321,7,8,3,2,0
8,1,1,0.5,1.74430280251217,-0.81401415689105,0.950957416732751,3,10,7,1,1
8,2,1,0.5,1.95922110775353,-0.222003860970287,0.699061780914778,3,8,3,2,0
8,3,1,0.5,1.11011763950489,-0.81401415689105,-0.452013888398081,7,10,3,2,2
8,4,1,0.5,1.51881474455403,-0.81401415689105,0.76758661722439,7,10,3,2,0
8,5,1,0.5,0.070758622354054,-0.222003860970287,0.0939740849370456,3,8,3,1,1
8,6,1,0.5,-0.0490319084362115,1.554027026792,-1.33730859882828,7,12,7,2,0
8,7,1,0.5,1.08193163226012,-0.222003860970287,0.0535852556006576,7,8,7,1,1
8,8,1,0.5,1.17353615580562,-0.222003860970287,0.561885970986007,3,8,3,2,2
8,9,1,0.5,-1.06020491834228,-0.222003860970287,-2.64353128756055,3,8,7,1,2
8,10,1,0.5,-0.817100605856149,-0.222003860970287,-0.195061741046285,7,8,3,1,0
8,11,1,0.5,-0.891088874873666,-0.222003860970287,-0.324262707959584,3,8,7,1,0
8,12,1,0.5,0.204642156766704,-0.222003860970287,1.46453857637665,7,8,7,1,0
8,13,1,0.5,-0.426019755334988,-0.222003860970287,-1.97331498849601,7,8,3,1,1
8,14,1,0.5,-0.820623856761745,-0.222003860970287,-0.746000597141637,3,12,7,2,2
8,15,1,0.5,-0.915751631212838,-0.81401415689105,0.264491422424997,3,10,7,2,1
8,16,1,0.5,0.704943785361342,-0.222003860970287,0.496488781999914,7,12,7,2,2
8,17,1,0.5,0.641525269060613,3.3300579145543,-0.00241383612658999,7,10,7,2,1
8,18,1,0.5,-0.993263151135951,1.554027026792,1.51056939386205,3,12,3,1,2
8,19,1,0.5,-0.140636431981709,-0.222003860970287,1.60937443506511,7,12,3,2,1
8,20,1,0.5,-1.05315841653108,-0.222003860970287,-0.187871321823601,3,12,3,1,0
8,21,1,0.5,-0.898135376684858,1.554027026792,1.06193528911255,7,8,7,1,2
8,22,1,0.5,-0.947460889363202,-0.81401415689105,1.62178010616878,3,10,3,2,1
8,23,1,0.5,-0.95803064207999,-0.81401415689105,-1.74930136572822,7,10,3,1,2
8,24,1,0.5,-0.239287457338398,-0.222003860970287,-0.374560418872728,3,12,7,2,0
9,1,1,0.5,0.260359713264582,-0.375540841706121,0.451905569018876,7,8,7,1,0
9,2,1,0.5,0.872162075787297,0.706016782407506,0.555166628859161,3,8,7,1,2
9,3,1,0.5,0.0506971058832025,0.706016782407506,0.0964335554178096,3,12,3,2,2
9,4,1,0.5,0.229425885946018,-0.375540841706121,0.258082187774756,7,12,3,2,2
9,5,1,0.5,0.555949618753085,-0.375540841706121,0.106073817946381,7,8,3,1,1
9,6,1,0.5,-0.45455540698668,-0.375540841706121,0.31408934610427,7,8,7,1,2
9,7,1,0.5,0.188180782854599,-0.736060049743996,-2.5925531806535,7,10,7,2,1
9,8,1,0.5,3.27468933086245,-0.375540841706121,1.7207743430476,3,8,7,2,2
9,9,1,0.5,0.0575712897317723,3.95068965474839,-0.306287063181887,3,12,7,1,1
9,10,1,0.5,-0.433932855440971,0.706016782407506,0.0901953875759443,7,12,3,1,0
9,11,1,0.5,1.06463922354725,-0.736060049743996,0.934851226161365,3,10,3,2,0
9,12,1,0.5,-0.884191897522294,-0.375540841706121,-1.096282248331,7,8,7,1,1
9,13,1,0.5,-0.976993379477987,0.706016782407506,-0.416492265894599,3,12,3,1,1
9,14,1,0.5,0.896221719257292,-0.375540841706121,0.850854963453781,3,8,3,1,0
9,15,1,0.5,-0.578290716260937,0.706016782407506,-0.125742871437317,7,8,3,2,1
9,16,1,0.5,-0.949496644083708,-0.375540841706121,0.175779072425284,3,12,3,2,1
9,17,1,0.5,-0.743271128626613,-0.736060049743996,0.942619022984698,7,10,3,2,0
9,18,1,0.5,-0.935748276386568,0.706016782407506,-0.972087626222235,3,12,7,1,0
9,19,1,0.5,0.384095022538839,-0.736060049743996,-0.48448254328587,3,10,7,2,0
9,20,1,0.5,1.22618254398864,-0.375540841706121,0.696602433900615,3,12,3,1,2
9,21,1,0.5,-0.616098727428071,-0.375540841706121,-1.26752667341558,3,8,7,2,1
9,22,1,0.5,-0.66421801436806,-0.375540841706121,0.0626858031723434,7,8,7,2,2
9,23,1,0.5,-1.21071563032936,-0.375540841706121,-1.65034140747563,7,8,3,1,2
9,24,1,0.5,-0.612661635503786,-0.736060049743996,0.458204050183045,7,10,7,2,0
10,1,1,0.5,0.296138490004323,-0.435642635968827,-0.0262523055610408,7,12,3,1,2
10,2,1,0.5,-0.863279046458227,-0.91088914793482,-0.237939812745308,7,10,3,1,0
10,3,1,0.5,-0.850710834680855,0.990096899929152,-0.389144505577033,7,12,7,1,1
10,4,1,0.5,0.726599743379308,-0.435642635968827,0.224288055801263,7,8,7,2,2
10,5,1,0.5,-0.0212088573743149,-0.435642635968827,0.763788952354713,7,12,7,2,1
10,6,1,0.5,1.78232953267854,0.990096899929152,-0.461024044835858,7,12,7,1,2
10,7,1,0.5,0.113899419232432,0.990096899929152,0.70805501213909,3,8,3,1,0
10,8,1,0.5,0.393542131278955,-0.91088914793482,-0.0460262743299205,3,10,7,1,2
10,9,1,0.5,-0.341698257697296,2.41583643582713,0.974299231322206,3,10,3,2,0
10,10,1,0.5,-0.401397263639812,-0.91088914793482,-0.280756255076502,7,10,3,2,0
10,11,1,0.5,-0.0777658103724881,0.990096899929152,-0.412379787952472,7,8,7,2,0
10,12,1,0.5,0.73916795515668,-0.435642635968827,0.965397820497723,3,12,7,2,2
10,13,1,0.5,-0.674755869797649,-0.91088914793482,-0.407100757819784,7,10,3,1,1
10,14,1,0.5,-0.995245270120631,-0.435642635968827,0.123273088756288,3,8,7,2,1
10,15,1,0.5,2.75008183953617,-0.91088914793482,1.02521184639318,7,10,7,1,0
10,16,1,0.5,0.54750272555176,-0.435642635968827,-0.636828113043348,3,12,3,2,2
10,17,1,0.5,0.849139808208683,-0.435642635968827,0.825603847874671,3,8,3,2,1
10,18,1,0.5,-0.847568781736512,-0.435642635968827,-0.969494889244282,3,12,3,1,2
10,19,1,0.5,-1.33772904105401,0.990096899929152,-1.28327460463978,3,12,7,1,1
10,20,1,0.5,0.054200413289916,2.41583643582713,0.0176815755554386,3,10,7,2,0
10,21,1,0.5,-1.3440131469427,-0.435642635968827,0.0603608845440691,7,12,3,2,1
10,22,1,0.5,1.07536762020138,-0.435642635968827,0.681449738327638,3,8,7,1,0
10,23,1,0.5,-0.800437987571368,-0.435642635968827,0.905263144100095,3,8,3,1,1
10,24,1,0.5,-0.772159511072281,-0.435642635968827,-0.697359780989004,7,8,3,2,2
12,1,1,0.5,1.63379658227562,-0.0687084700658151,3.83321846939543,7,8,7,2,2
12,2,1,0.5,1.03887795843342,-0.0687084700658151,4.31276288335362,3,8,7,1,2
12,3,1,0.5,0.997957629809359,-0.0687084700658151,3.61633731710708,7,12,3,2,2
12,4,1,0.5,1.58343310089215,-0.0687084700658151,4.6306528761796,3,12,7,2,2
12,5,1,0.5,-0.558588716698391,-0.893210110855586,2.25357709219236,3,10,7,2,1
12,6,1,0.5,0.946020289632659,-0.0687084700658151,3.76609043372552,7,8,3,1,0
12,7,1,0.5,1.61018870037712,-0.0687084700658151,4.15964931342011,3,8,3,2,0
12,8,1,0.5,0.340084654237832,-0.0687084700658151,3.57539613810186,3,8,3,2,1
12,9,1,0.5,0.333789219064899,-0.0687084700658151,3.936046846603,3,8,7,1,1
12,10,1,0.5,0.920838548940926,-0.893210110855586,4.368909325688,7,10,3,1,2
12,11,1,0.5,0.90352610221536,2.4047964523035,4.00876645983857,3,12,3,1,1
12,12,1,0.5,-0.234373805292328,2.4047964523035,3.71305210731753,7,12,3,1,1
12,13,1,0.5,-1.11416087070975,-0.0687084700658151,3.18951260390704,7,8,3,2,1
12,14,1,0.5,-0.324083756506627,-0.0687084700658151,2.28396336763237,3,12,7,2,0
12,15,1,0.5,-0.621543068427724,-0.0687084700658151,3.17134164146444,7,8,7,2,0
12,16,1,0.5,0.417203735106265,-0.0687084700658151,3.49801149206298,3,12,3,2,2
12,17,1,0.5,-0.659315679465324,-0.893210110855586,3.78538414199453,3,10,3,1,2
12,18,1,0.5,-0.846604875860088,-0.893210110855586,1.91045401887677,3,10,3,1,0
12,19,1,0.5,-1.26997289123985,-0.893210110855586,2.07763229434114,7,10,7,2,1
12,20,1,0.5,-1.03074635466839,-0.893210110855586,2.07038465486643,3,10,7,1,0
12,21,1,0.5,-0.819849276375122,-0.893210110855586,1.08193687552393,7,10,7,1,1
12,22,1,0.5,-0.936314827074387,-0.0687084700658151,2.71974525775627,7,8,7,1,2
12,23,1,0.5,-0.99454760242402,2.4047964523035,3.24576312606602,7,12,7,1,0
12,24,1,0.5,-1.31561479624362,-0.0687084700658151,3.64740798923635,7,8,3,2,0
13,1,1,0.5,0.786978041941942,3.07487454701057,0.881036951894514,7,10,7,1,1
13,2,1,0.5,0.495618884396345,-0.229468249776909,-0.0171554265041994,3,8,3,1,1
13,3,1,0.5,-0.376146213974209,1.42270314861683,0.0293020186566481,3,12,7,1,0
13,4,1,0.5,0.958093737643324,-0.229468249776909,0.736629608441177,3,8,7,2,1
13,5,1,0.5,1.40669434529289,-0.229468249776909,0.948354546231906,7,12,3,1,2
13,6,1,0.5,0.810101784604291,-0.780192049241489,0.332187332864409,7,10,3,2,2
13,7,1,0.5,1.27951376064997,-0.780192049241489,-1.21144613729788,3,10,3,2,2
13,8,1,0.5,1.39744484822795,1.42270314861683,0.706069776374664,7,12,3,1,1
13,9,1,0.5,0.49793125866258,1.42270314861683,0.729945838599317,3,12,7,2,2
13,10,1,0.5,0.523367375591164,-0.780192049241489,-1.16844362978444,3,10,7,2,0
13,11,1,0.5,0.375375422552131,-0.229468249776909,0.470949154327705,7,12,3,1,0
13,12,1,0.5,1.19164353853305,-0.229468249776909,0.84433289280043,7,12,7,2,2
13,13,1,0.5,0.363813551220956,-0.229468249776909,0.919152061956164,3,8,3,2,0
13,14,1,0.5,-0.850182938552362,-0.780192049241489,-0.341145641129889,3,10,3,2,1
13,15,1,0.5,-1.11379360490314,-0.229468249776909,-0.505655344829715,3,8,3,1,2
13,16,1,0.5,0.449371399071647,-0.780192049241489,0.650858887528007,7,10,7,1,2
13,17,1,0.5,0.0886410135390041,-0.229468249776909,0.776744351387802,7,12,3,2,1
13,18,1,0.5,-1.7011366685268,-0.780192049241489,-0.658762536884316,3,10,3,1,0
13,19,1,0.5,-0.998174891591396,-0.229468249776909,0.787257875809605,7,8,7,1,0
13,20,1,0.5,-0.713752856844504,1.42270314861683,1.34974486146976,3,12,7,1,1
13,21,1,0.5,-1.05367187398103,-0.780192049241489,0.475806353438785,3,10,7,1,2
13,22,1,0.5,-1.33809390872792,-0.229468249776909,-0.730355573857043,7,12,7,2,1
13,23,1,0.5,-1.4490878735072,-0.780192049241489,-0.319789085601448,7,10,7,2,0
13,24,1,0.5,-1.03054813131868,-0.229468249776909,0.487409006998786,7,8,3,2,0
14,2,1,0.5,-0.315219554572394,-0.268182305786454,7.03047619008458,3,8,7,1,2
14,3,1,0.5,1.56452084710522,1.50182091240414,9.0457892588322,7,12,7,2,2
14,4,1,0.5,0.895953384652873,-0.858183378516652,8.14678696907471,7,10,3,1,1
14,10,1,0.5,-0.765083789141779,1.50182091240414,7.17363037936055,3,12,3,1,2
14,11,1,0.5,-0.994860598183372,-0.268182305786454,6.39532853154607,7,8,7,2,1
14,16,1,0.5,-0.456407714344939,-0.268182305786454,6.5875890837625,7,12,7,1,1
14,17,1,0.5,-0.665421558714099,-0.858183378516652,8.29074760027112,7,10,7,2,0
14,19,1,0.5,0.513914834680103,-0.268182305786454,9.24237210510826,7,8,3,2,2
14,20,1,0.5,-0.986555412314399,1.50182091240414,8.75491511566999,3,12,3,1,1
14,22,1,0.5,1.71262999510191,-0.858183378516652,7.42553248923898,7,10,3,1,0
14,24,1,0.5,-0.503470434269121,-0.858183378516652,7.37845670218269,7,10,7,1,2
15,1,1,0.5,1.08278858340077,-0.715491385636572,-1.50791103787816,3,8,7,2,2
15,2,1,0.5,0.64626485667867,0.946295058422562,-1.65231189289703,3,10,7,1,0
15,3,1,0.5,2.21932333135292,0.115401836392995,-0.639084057873879,3,12,3,2,0
15,4,1,0.5,1.31874735460191,0.115401836392995,-1.09749350157719,3,12,3,1,0
15,5,1,0.5,0.249067591823422,0.115401836392995,-3.18515808890934,7,12,7,1,1
15,6,1,0.5,2.44741681018068,-0.99245579297976,-0.296003909737072,3,10,3,1,2
15,7,1,0.5,-0.671171615861012,-0.715491385636572,-1.56708433686543,7,8,3,1,0
15,8,1,0.5,-0.710498077727868,2.6080815024817,-1.16938943106715,3,12,7,1,1
15,9,1,0.5,1.01593359822712,-0.715491385636572,-1.65039590363359,3,8,7,1,2
15,10,1,0.5,-0.226782596765537,0.946295058422562,-3.43896220887122,7,10,3,2,0
15,11,1,0.5,0.103559682916055,-0.715491385636572,-4.96452789398148,3,8,7,2,0
15,12,1,0.5,0.426036670224275,-0.715491385636572,-3.68141877818546,7,8,3,1,2
15,13,1,0.5,-0.0340829336179419,-0.715491385636572,-1.56185480141182,7,8,7,1,2
15,14,1,0.5,-0.970052726049118,0.115401836392995,-2.80398544222221,3,12,3,2,2
15,15,1,0.5,-1.1116279887698,0.115401836392995,-5.66893944848995,7,12,3,2,2
15,16,1,0.5,-0.66330632348764,0.115401836392995,-2.14799549241228,3,12,7,2,1
15,17,1,0.5,-0.541394291700386,2.6080815024817,-3.96410018637134,3,12,3,1,1
15,18,1,0.5,-1.02117712647603,0.115401836392995,-6.17956464088029,7,12,7,2,2
15,19,1,0.5,-0.266109058632393,-0.715491385636572,-0.48300833094879,7,8,7,2,0
15,20,1,0.5,-0.596451338313985,-0.715491385636572,-2.87790007470807,7,8,3,2,1
15,21,1,0.5,-0.616114569247413,-0.715491385636572,-3.0498175304189,3,8,3,2,1
15,22,1,0.5,-0.293637581939192,0.946295058422562,-2.81607518668525,7,10,7,2,1
15,23,1,0.5,-0.793083647648266,-0.715491385636572,-3.22265296494446,7,8,3,1,1
15,24,1,0.5,-0.993648603169232,-0.715491385636572,-3.93180259619494,7,8,7,1,0
16,1,1,0.5,-0.0767076766725516,-0.300796416641907,2.43292326978625,3,12,7,2,2
16,2,1,0.5,-0.0369333258053026,-0.300796416641907,1.85210067972805,3,8,7,1,2
16,3,1,0.5,1.44202314929934,-0.300796416641907,2.72519746550892,7,12,7,2,2
16,4,1,0.5,-0.737448933936647,1.76180758318831,2.14880741996084,7,10,3,1,1
16,5,1,0.5,-0.0734607908874701,-0.300796416641907,2.66415607384697,3,12,3,2,1
16,6,1,0.5,0.620561045673711,-0.300796416641907,2.65108573775387,7,8,3,2,1
16,7,1,0.5,-0.0109582395246502,-0.300796416641907,2.22863384551443,7,8,3,2,0
16,8,1,0.5,-0.339705425264157,-0.644563749946943,1.65062430959635,3,10,7,2,1
16,9,1,0.5,-0.334023375140264,-0.300796416641907,1.53279518351927,3,8,3,1,0
16,10,1,0.5,-1.01181078277604,0.730505583273202,2.55868584004342,3,12,3,1,2
16,11,1,0.5,2.18961860131437,-0.300796416641907,3.22243127826072,7,8,7,2,1
16,12,1,0.5,-0.677381546912638,-0.644563749946943,1.82351561480848,7,10,3,1,2
16,13,1,0.5,0.749624755630703,-0.300796416641907,3.15519664708331,3,8,7,2,0
16,14,1,0.5,-0.898981501744454,0.730505583273202,0.944362620200335,3,12,3,2,2
16,15,1,0.5,-0.22038237266241,-0.644563749946943,2.73309767384324,3,10,7,1,0
16,16,1,0.5,0.573481201790029,3.82441158301853,2.26149665185929,7,12,7,1,1
16,17,1,0.5,0.221194094108681,-0.644563749946943,2.47256896681805,7,10,7,2,0
16,18,1,0.5,-0.839725836166716,-0.300796416641907,1.882409423561,7,12,7,1,0
16,19,1,0.5,-0.0702139051023885,-0.300796416641907,2.49035108268745,7,8,3,2,2
16,20,1,0.5,-0.574292923236299,0.730505583273202,1.94742905708108,3,12,3,1,1
16,21,1,0.5,2.82925510097544,-0.300796416641907,3.23921965176364,3,12,3,2,0
16,22,1,0.5,-0.585657023484085,-0.644563749946943,1.6273861680137,7,10,3,1,0
16,23,1,0.5,-1.0183045543462,-0.300796416641907,1.11761113955492,3,8,7,1,1
16,24,1,0.5,-1.11976973513,-0.644563749946943,1.46860055255557,7,10,7,1,2
17,1,1,0.5,1.15396500324483,-0.25993450567827,2.10809444978349,3,8,7,2,1
17,2,1,0.5,2.26490879391686,1.07687152352426,3.18956472487363,7,12,7,2,1
17,3,1,0.5,0.419764882326164,-0.25993450567827,3.67835563170754,3,8,3,2,2
17,4,1,0.5,1.66186175939697,-0.25993450567827,2.86437268295432,7,8,7,1,1
17,5,1,0.5,-0.633317252581696,-0.705536515412446,1.23382119045715,7,10,3,1,2
17,6,1,0.5,0.574062631030612,2.41367755272679,2.11114590650567,7,10,3,1,1
17,7,1,0.5,-0.818474551027034,-0.705536515412446,1.14943368379687,3,10,3,1,2
17,8,1,0.5,-0.94705600828074,-0.705536515412446,2.16720867408273,3,10,7,2,0
17,9,1,0.5,-1.19264659163532,-0.25993450567827,1.7276498770187,7,8,3,2,0
17,10,1,0.5,1.63228802422862,-0.25993450567827,2.49440896693539,7,8,3,2,1
17,11,1,0.5,-0.875050392218665,-0.705536515412446,1.4951292763885,3,10,3,2,0
17,12,1,0.5,-0.68860727920079,-0.25993450567827,1.86894952278675,7,8,7,1,2
17,13,1,0.5,0.620351955641947,-0.705536515412446,3.08548806915419,3,10,7,1,1
17,14,1,0.5,-0.76318452440794,-0.705536515412446,2.01104654409131,7,10,3,2,2
17,15,1,0.5,-0.148565158735221,-0.25993450567827,2.34935995051208,3,12,3,1,1
17,16,1,0.5,-0.692464722918401,-0.705536515412446,1.88628305224931,3,10,3,2,1
17,17,1,0.5,-0.00583974118360595,-0.25993450567827,3.06601009715589,7,8,7,2,0
17,18,1,0.5,-0.299005463722058,2.41367755272679,2.25492012741507,7,10,3,1,0
17,19,1,0.5,1.0523856520144,-0.25993450567827,3.21275038320592,3,12,7,1,2
17,20,1,0.5,-0.439159252128598,-0.25993450567827,2.78829370291477,7,8,7,1,0
17,21,1,0.5,-0.884051094226424,2.41367755272679,2.36368237622877,3,10,3,1,0
17,22,1,0.5,0.826082287247878,-0.25993450567827,1.95459536089779,7,8,7,2,2
17,23,1,0.5,-0.929054604265221,-0.25993450567827,2.32012653262606,3,12,7,1,0
17,24,1,0.5,-0.889194352516572,-0.25993450567827,1.49743242703709,3,12,7,2,2
18,1,1,0.5,2.06919839577808,0.295163026345123,1.45958502913755,7,12,3,1,1
18,2,1,0.5,0.199849867580136,-0.885489079035371,0.967279523672521,3,10,7,1,1
18,3,1,0.5,-0.0765580771875939,-0.885489079035371,1.01835485623558,7,10,3,2,2
18,4,1,0.5,1.84232019833867,0.295163026345123,2.05309026233375,3,8,7,1,2
18,5,1,0.5,0.599283313776277,3.83711934248661,2.1242772826849,3,12,3,1,1
18,6,1,0.5,0.985934889694142,0.295163026345123,2.22427894743235,3,12,3,2,0
18,7,1,0.5,0.0256968850386183,0.295163026345123,1.48428844536587,7,8,7,1,1
18,8,1,0.5,-0.599017024812147,0.295163026345123,0.708639166821296,7,12,3,1,2
18,9,1,0.5,-0.848263495238539,0.295163026345123,-0.161718477376681,3,8,3,1,0
18,10,1,0.5,-0.490371127446796,-0.885489079035371,0.873197271863491,7,10,3,2,1
18,11,1,0.5,-0.298643073272648,-0.885489079035371,1.5299184001338,3,10,7,2,1
18,12,1,0.5,0.695147340863351,0.295163026345123,0.212341185253992,7,8,3,2,0
18,13,1,0.5,0.01930594989948,-0.885489079035371,1.87118857493896,3,10,3,2,2
18,14,1,0.5,0.271747887895441,-0.885489079035371,2.08986477049544,7,10,7,2,1
18,15,1,0.5,-1.00004820479307,0.295163026345123,1.0837699995308,7,12,7,2,0
18,16,1,0.5,-1.03999154941269,-0.885489079035371,-0.0628788009573323,3,10,3,2,1
18,17,1,0.5,2.36477914596322,-0.885489079035371,2.07319787413101,7,10,7,2,2
18,18,1,0.5,-0.229940520526912,0.295163026345123,1.53824439841719,3,12,7,2,2
18,19,1,0.5,-0.522325803142488,0.295163026345123,1.13782164447454,7,8,7,1,0
18,20,1,0.5,-0.43924364633369,0.295163026345123,0.42748402096165,3,8,3,1,2
18,21,1,0.5,-1.18858079139765,0.295163026345123,-0.696420832187984,3,8,7,1,0
18,22,1,0.5,-1.193373992752,0.295163026345123,0.938725620017739,3,8,7,2,0
18,23,1,0.5,-0.189997175907298,0.295163026345123,-0.0052601327750379,7,8,3,1,0
18,24,1,0.5,-0.956909392603889,-0.885489079035371,-0.352997859948579,7,10,7,1,2
19,1,1,0.5,1.06182546496613,-0.978945010372561,1.84670593660276,3,10,7,2,2
19,2,1,0.5,-0.215589337084942,1.6315750172876,1.47104795110032,7,12,7,2,0
19,3,1,0.5,2.63505186781269,-0.326315003457521,2.01776873602138,7,12,7,2,1
19,4,1,0.5,2.63300472870684,-0.326315003457521,1.91503348931209,3,12,3,2,0
19,5,1,0.5,-0.370148339576699,1.6315750172876,0.532824440231058,3,12,7,1,1
19,6,1,0.5,0.0239259382996345,-0.326315003457521,1.03752305305344,3,12,3,1,0
19,7,1,0.5,0.334067512836073,-0.326315003457521,1.27134957192862,7,8,3,1,1
19,8,1,0.5,-0.673124927242658,1.6315750172876,-0.674333382820942,7,12,3,1,0
19,9,1,0.5,-0.332276266118454,-0.978945010372561,0.909888432187903,3,10,3,2,2
19,10,1,0.5,-0.217636476190793,-0.978945010372561,1.13190895617576,7,10,3,2,2
19,11,1,0.5,1.39755627832571,-0.326315003457521,2.34110984666202,7,8,7,1,2
19,12,1,0.5,0.455872289634213,-0.326315003457521,1.9788280091346,7,12,3,1,2
19,13,1,0.5,-0.0241818306878659,-0.326315003457521,1.1494655888826,3,8,3,1,2
19,14,1,0.5,-0.201259363343984,-0.326315003457521,0.533669909391859,3,8,3,1,1
19,15,1,0.5,-0.686431331430691,1.6315750172876,-0.967229669807894,3,12,7,1,0
19,16,1,0.5,-0.707926292042127,-0.326315003457521,0.834482374473686,7,8,3,2,1
19,17,1,0.5,-0.729421252653563,-0.978945010372561,0.23006229962095,7,10,7,1,0
19,18,1,0.5,-0.517542355197976,-0.326315003457521,0.0249136331675074,3,12,7,2,1
19,19,1,0.5,-0.954606554297182,1.6315750172876,0.382318335981523,7,12,7,1,1
19,20,1,0.5,-0.0159932742644616,-0.978945010372561,1.65847548344732,7,10,7,2,2
19,21,1,0.5,-0.869650281404362,-0.326315003457521,0.96541245937396,7,12,3,2,0
19,22,1,0.5,-0.54415516357404,-0.326315003457521,1.39893307922814,3,12,7,2,0
19,23,1,0.5,-0.575885819714732,1.6315750172876,0.577969184574983,3,12,7,1,2
19,24,1,0.5,-0.905475215756756,-0.978945010372561,-0.403327286991957,3,10,3,2,1
20,1,1,0.5,0.0920476412209141,-0.599979131523567,-0.755202966592866,7,10,3,1,2
20,2,1,0.5,1.42930688743486,-0.279990261377665,1.33985968467056,3,12,3,1,2
20,3,1,0.5,-0.670989819035713,-0.279990261377665,0.217580657906333,3,12,3,2,0
20,4,1,0.5,0.589632477021451,-0.599979131523567,0.906144318468559,3,10,7,1,2
20,5,1,0.5,0.771784068698434,1.63994295949775,0.281435566723198,7,10,3,1,0
20,6,1,0.5,0.582968394399123,-0.599979131523567,0.83695640862747,3,10,7,1,1
20,7,1,0.5,0.0187427323752992,1.63994295949775,0.986012089756343,3,10,7,1,0
20,8,1,0.5,1.27270094581013,0.679976349060042,2.18757453936643,7,12,3,1,1
20,9,1,0.5,0.30529828513543,-0.599979131523567,1.32584368296449,3,10,3,1,1
20,10,1,0.5,2.72991367922599,-0.279990261377665,2.23065096566931,3,12,3,2,2
20,11,1,0.5,-0.673211179909823,-0.279990261377665,0.49248230203752,3,8,3,1,0
20,12,1,0.5,0.100933084717352,-0.279990261377665,0.248697704902636,3,8,3,2,1
20,13,1,0.5,0.648498540185354,-0.599979131523567,1.29754430014597,7,10,7,1,0
20,14,1,0.5,0.485228515938303,-0.279990261377665,1.66035391560312,3,8,7,2,1
20,15,1,0.5,0.785112233943091,-0.599979131523567,2.1370268174532,7,10,3,2,1
20,16,1,0.5,-1.04639980676023,3.55987618037316,-0.718032324927981,7,12,7,1,1
20,17,1,0.5,-1.11637267429468,0.679976349060042,-1.37283353758491,7,12,7,2,1
20,18,1,0.5,-0.887572504261393,-0.279990261377665,-1.00889293401174,7,12,3,2,2
20,19,1,0.5,-0.812046234541669,-0.279990261377665,-2.51752672266853,7,12,7,1,2
20,20,1,0.5,-1.06639205462721,-0.279990261377665,-0.711745927438978,7,12,3,2,0
20,21,1,0.5,-1.04862116763433,-0.599979131523567,1.58880196556979,7,10,7,2,2
20,22,1,0.5,-1.15635717002865,-0.279990261377665,-4.79227369970223,3,8,7,2,0
20,23,1,0.5,-0.492170268669895,-0.599979131523567,1.85840226970291,3,10,7,2,2
20,24,1,0.5,-0.842034606342148,-0.599979131523567,0.308518736528798,7,10,7,2,0
21,1,1,0.5,1.48226186016653,-0.435494170355693,-1.12174123016358,3,12,7,2,2
21,2,1,0.5,1.35116110599867,-0.435494170355693,-0.70284143985199,3,8,7,1,2
21,3,1,0.5,0.593690081917666,-0.435494170355693,-0.865645348198162,7,12,7,2,2
21,4,1,0.5,1.70367646720559,2.17747085177846,-1.42863673060296,7,10,3,1,1
21,5,1,0.5,1.64249611526059,-0.435494170355693,-0.0561724577272875,3,12,3,2,1
21,6,1,0.5,1.73280996813178,-0.435494170355693,-0.923245140992153,7,8,3,2,1
21,7,1,0.5,-0.830938113373136,-0.435494170355693,-3.74485662577333,7,8,3,2,0
21,8,1,0.5,-0.868811664577186,2.17747085177846,-3.69366603209208,3,10,7,2,1
21,9,1,0.5,0.748097636826485,-0.435494170355693,-2.15830297714195,3,8,3,1,0
21,10,1,0.5,-0.0122867373471331,-0.435494170355693,-3.98418047292127,3,12,3,1,2
21,11,1,0.5,0.0314135140421553,-0.435494170355693,-0.288354219716635,7,8,7,2,1
21,12,1,0.5,-0.428895800591682,-0.870988340711385,-0.227065021202397,7,10,3,1,2
21,13,1,0.5,-0.297795046423817,-0.435494170355693,-1.05468788805861,3,8,7,2,0
21,14,1,0.5,-0.70275070929789,-0.435494170355693,-5.42261852746429,3,12,3,2,2
21,15,1,0.5,-0.679443908556936,-0.870988340711385,-1.8988027872499,3,10,7,1,0
21,16,1,0.5,-0.423069100406444,0.870988340711385,-8.64070610798676,7,12,7,1,1
21,17,1,0.5,-0.676530558464317,-0.870988340711385,-0.116988126076845,7,10,7,2,0
21,18,1,0.5,0.520856329602185,-0.435494170355693,-2.86094204670973,7,12,7,1,0
21,19,1,0.5,-1.04943937031958,0.870988340711385,-2.90680897300193,7,8,3,2,2
21,21,1,0.5,-1.08148622133839,0.870988340711385,-1.54164640071982,3,12,3,2,0
21,22,1,0.5,-1.11061972226458,2.17747085177846,-4.62822238994123,7,10,3,1,0
21,23,1,0.5,-0.714404109668367,-0.435494170355693,-4.40976240595865,3,8,7,1,1
21,24,1,0.5,-0.929992016522189,-0.870988340711385,-1.07345638728404,7,10,7,1,2
22,1,1,0.5,0.0951742196796061,-0.419322312840655,4.50983406572689,7,8,7,1,1
22,2,1,0.5,0.408982923028798,1.0273396664596,6.22424251057416,3,12,7,2,2
22,3,1,0.5,3.29831915508538,1.0273396664596,6.42282332882463,3,12,3,1,0
22,4,1,0.5,-0.28751932099014,-0.419322312840655,5.87980777183649,3,8,3,1,2
22,5,1,0.5,0.183193734033648,-0.419322312840655,6.48515866996062,7,12,3,1,1
22,6,1,0.5,-0.670212861659885,-0.419322312840655,5.32747377739339,7,8,7,2,2
22,7,1,0.5,0.711310820157897,-0.901542972607407,4.51559932316216,7,10,3,2,0
22,8,1,0.5,-0.773540117640717,-0.419322312840655,5.11145563903523,7,12,3,2,1
22,9,1,0.5,-0.624289636779516,1.0273396664596,3.0872709894428,7,12,7,1,2
22,10,1,0.5,1.23560097087545,2.47400164575986,6.5966538642598,3,10,3,1,1
22,11,1,0.5,0.0377701885791443,-0.419322312840655,5.09086276036751,7,8,3,1,0
22,12,1,0.5,-0.0502493257748972,-0.901542972607407,6.26505901961708,3,10,3,2,0
22,13,1,0.5,0.477867760349352,-0.419322312840655,4.01852407995567,7,8,7,1,0
22,14,1,0.5,-1.19067607697074,-0.419322312840655,3.51036557536432,3,8,3,2,2
22,15,1,0.5,1.12844677948792,-0.419322312840655,6.41228757386676,3,12,7,2,0
22,16,1,0.5,-0.448250608071433,2.47400164575986,4.90220969260175,7,10,7,2,1
22,17,1,0.5,-1.08734882098991,-0.419322312840655,-0.925998856195104,7,8,3,1,2
22,18,1,0.5,0.864388236425795,1.0273396664596,6.22593942501881,3,12,3,2,1
22,19,1,0.5,-0.635770442999608,-0.901542972607407,6.10813608351808,3,10,7,1,2
22,21,1,0.5,-0.727616892760347,-0.901542972607407,5.6831037555933,7,10,7,2,0
22,22,1,0.5,-0.90365592146843,-0.419322312840655,3.75958844747724,7,8,3,2,2
22,23,1,0.5,-0.597501088932634,-0.419322312840655,4.60824941632628,3,12,7,2,1
22,24,1,0.5,-0.444423672664735,-0.419322312840655,5.11171111024499,3,8,7,1,1
1,1,1,1,2.28434771725881,-0.255609437163093,0.473498425135735,7,8,3,1,0
1,3,1,1,-0.171026510066587,-0.843511142638205,0.305906992519321,3,10,3,1,1
1,4,1,1,1.60070853734751,1.50809567926225,0.530630837326548,3,12,3,1,2
1,5,1,1,-0.385782273389508,-0.255609437163093,-0.4682997638064,7,12,3,1,2
1,6,1,1,0.0186744142019933,-0.255609437163093,0.68675485543879,7,12,3,2,0
1,7,1,1,-0.0672278911271752,-0.255609437163093,-0.282634649249803,7,12,7,2,0
1,8,1,1,-0.471684578718677,-0.255609437163093,-0.508949292029734,3,12,3,2,0
1,9,1,1,-0.428733426054093,-0.255609437163093,-0.682322378662288,3,8,7,2,0
1,10,1,1,-0.740129282872328,-0.255609437163093,-2.97551234012444,7,8,3,2,2
1,11,1,1,-0.840348639089692,-0.843511142638205,-0.284755922716435,7,10,7,1,1
1,12,1,1,-0.718653706540036,-0.255609437163093,-0.691990010769133,7,8,7,1,0
1,13,1,1,-0.16386798462249,1.50809567926225,0.547183962966563,3,12,7,1,0
1,14,1,1,-0.919092418974763,-0.255609437163093,-0.288373964722069,7,8,3,1,1
1,15,1,1,1.10677028170479,-0.843511142638205,0.104646297023889,3,10,7,1,2
1,16,1,1,0.240588702969012,-0.843511142638205,-0.449578702987582,3,10,7,2,2
1,17,1,1,2.69954219301646,1.50809567926225,1.06344755614566,7,12,7,1,2
1,18,1,1,0.430289627237592,-0.255609437163093,0.534196219369693,7,8,7,2,1
1,19,1,1,-0.679281816597501,-0.255609437163093,-0.985029562298291,7,8,3,2,1
1,20,1,1,-0.546849095881699,-0.843511142638205,-3.94573442907914,7,10,7,2,2
1,21,1,1,-0.443050476942287,-0.255609437163093,0.471514805517452,3,8,3,2,2
1,22,1,1,-0.29987996806034,-0.255609437163093,-0.139709339095695,3,8,3,2,1
1,23,1,1,-0.589800248546284,3.27180079568758,0.75669498063938,3,10,3,1,0
1,24,1,1,-0.915513156252714,-0.255609437163093,0.0473684797094138,3,8,7,1,1
2,1,1,1,0.464088670255891,-0.420558293861036,1.23816905110418,7,12,3,1,2
2,2,1,1,1.02587331658995,1.53300281310635,1.45487210787394,7,10,3,1,0
2,3,1,1,0.830743635510334,3.48656392007375,1.29604706629826,7,12,7,1,1
2,4,1,1,1.23673926227276,-0.420558293861036,1.42209945275186,7,8,7,2,2
2,5,1,1,-0.0221619059828328,-0.420558293861036,1.50891647063039,7,12,7,2,1
2,6,1,1,0.674954615938704,0.556222259622659,1.05119051342411,7,12,7,1,2
2,7,1,1,1.43029531689206,-0.420558293861036,1.09662010171151,3,8,3,1,0
2,8,1,1,1.83943819657513,-0.746151811688934,1.57374104989313,3,10,7,1,2
2,9,1,1,0.0816974403982539,-0.746151811688934,1.32349876541386,3,10,3,2,0
2,10,1,1,-0.402979509380151,-0.746151811688934,0.394086301328828,7,10,3,2,0
2,11,1,1,-0.0945487231575296,-0.420558293861036,1.35548842452104,7,8,7,2,0
2,12,1,1,0.169820522176146,0.556222259622659,1.26339532641001,3,12,7,2,2
2,13,1,1,-0.989942179079322,1.53300281310635,0.0758531881749931,7,10,3,1,1
2,14,1,1,1.68050192408286,-0.420558293861036,1.33459577241104,3,8,7,2,1
2,15,1,1,-1.0607553697937,-0.746151811688934,0.352518215039556,7,10,7,1,0
2,16,1,1,-0.612271828602644,-0.420558293861036,1.42870901744339,3,12,3,2,2
2,17,1,1,0.475104055478128,0.556222259622659,1.55822997570776,3,8,3,2,1
2,18,1,1,-0.115005867141683,-0.420558293861036,1.31007869495349,3,12,3,1,2
2,19,1,1,-0.706689416221813,0.556222259622659,1.32133130921527,3,12,7,1,1
2,20,1,1,-1.42268945566718,-0.746151811688934,0.359616336290552,3,10,7,2,0
2,21,1,1,-0.635876225507436,-0.420558293861036,0.45444627089191,7,12,3,2,1
2,22,1,1,-1.38649604707984,-0.420558293861036,-0.251409531428909,3,8,7,1,0
2,23,1,1,-1.20080812476213,-0.420558293861036,0.185619984313439,3,8,3,1,1
2,24,1,1,-1.25903230379396,-0.420558293861036,-0.913982489157612,7,8,3,2,2
3,1,1,1,3.2587883326523,-0.313103974450949,0.370502053845765,7,8,3,2,0
3,2,1,1,0.338950201642425,1.29714503701107,0.866434445283739,3,8,3,1,0
3,3,1,1,0.773530760676452,-0.313103974450949,0.797997426836009,3,8,7,2,2
3,4,1,1,-0.231436782089736,1.29714503701107,-0.014014388584271,7,8,3,1,1
3,5,1,1,-0.557372201365257,-0.313103974450949,0.0650990411992472,7,8,7,1,1
3,6,1,1,-0.163533569740669,2.90739404847309,-2.51146661358867,7,10,7,2,1
3,7,1,1,-0.38761417049259,-0.849853644938288,0.355937604175289,7,10,3,1,2
3,8,1,1,-0.28575935196899,1.29714503701107,0.452793856002088,7,8,7,2,0
3,9,1,1,-0.143162606035949,1.29714503701107,-0.243216222591067,3,12,7,1,1
3,10,1,1,-0.808614087056804,-0.849853644938288,-1.76755942146223,7,10,3,2,2
3,11,1,1,-0.964791475459657,-0.849853644938288,-1.98631518981796,3,10,7,1,0
3,12,1,1,-0.849356014466244,1.29714503701107,-0.652466130155312,3,12,3,1,1
3,13,1,1,-0.50983995272091,-0.313103974450949,0.366063058154034,3,12,7,2,0
3,14,1,1,0.522288874984905,-0.849853644938288,0.779979036811001,3,10,3,2,2
3,15,1,1,-0.910468905580404,-0.849853644938288,-0.589160629988262,7,10,3,2,1
3,16,1,1,-0.217856139619923,-0.313103974450949,-0.0239930319142549,3,8,3,1,2
3,17,1,1,-0.231436782089736,-0.313103974450949,0.120234698298785,7,8,3,1,0
3,18,1,1,0.0605470310112509,-0.313103974450949,-0.828664749400802,3,8,3,2,0
3,19,1,1,0.0130147823669042,-0.313103974450949,-0.155673749491915,3,8,7,1,2
3,20,1,1,0.705627548327385,-0.313103974450949,-0.0140834980484982,7,12,7,2,2
3,21,1,1,0.352530844112238,-0.313103974450949,-0.15239863790027,3,12,7,2,1
3,22,1,1,2.17233693506723,-0.849853644938288,0.908895498472153,3,10,3,2,1
3,23,1,1,-1.10059790015779,-0.849853644938288,-0.0282126905339922,7,10,7,1,2
3,24,1,1,-0.83577537199643,-0.313103974450949,0.731819810140166,7,12,7,1,0
4,1,1,1,-0.00888346395525166,-0.0591726335413945,0.66295015589545,3,8,7,2,1
4,2,1,1,2.30747976237662,-0.0591726335413945,1.66708991711805,7,12,7,2,1
4,3,1,1,1.46799241860534,-0.0591726335413945,1.29562300987,3,8,3,2,2
4,4,1,1,0.81505781789434,-0.0591726335413945,0.66638659413693,7,8,7,1,1
4,5,1,1,0.370884620131757,-0.68048528572603,0.954387517225781,7,10,3,1,2
4,6,1,1,0.0954972375189553,3.66870327956642,0.643159670659047,7,10,3,1,1
4,7,1,1,-0.144356289272839,-0.68048528572603,1.01136976559278,3,10,3,1,2
4,9,1,1,-1.33029872729894,-0.0591726335413945,-0.249221346956212,7,8,3,2,0
4,10,1,1,-1.01271489089869,-0.0591726335413945,0.715317603466147,7,8,3,2,1
4,11,1,1,-0.424185403863267,-0.68048528572603,0.470904429681102,3,10,3,2,0
4,12,1,1,0.21320313492604,-0.0591726335413945,0.26231585598371,7,8,7,1,2
4,13,1,1,-0.684026724554378,-0.68048528572603,0.980515540837819,3,10,7,1,1
4,14,1,1,-0.746210972241139,-0.68048528572603,-1.86545253032002,7,10,3,2,2
4,15,1,1,0.470823589628338,1.80476532301251,0.404560988512507,3,12,3,1,1
4,16,1,1,0.262062186679924,-0.68048528572603,0.69035577628354,3,10,3,2,1
4,17,1,1,0.981622767055308,-0.0591726335413945,0.948335903709135,7,8,7,2,0
4,19,1,1,-1.1348625202834,-0.0591726335413945,-0.397815095846577,3,12,7,1,2
4,21,1,1,1.17927984005966,-0.68048528572603,1.02202130912136,3,10,3,1,0
4,22,1,1,-1.33029872729894,-0.0591726335413945,0.764470292577046,7,8,7,2,2
4,23,1,1,0.0444173197762583,-0.0591726335413945,0.90055250321908,3,12,7,1,0
4,24,1,1,-1.3924829749857,-0.0591726335413945,-0.177118021791183,3,12,7,2,2
5,1,1,1,2.16756348179368,-0.395008187929654,1.14084271665258,7,8,7,2,2
5,2,1,1,1.08347567432217,-0.395008187929654,0.0897124158343371,3,8,7,1,2
5,3,1,1,0.18792487684571,-0.395008187929654,-0.135399781494098,7,12,3,2,2
5,4,1,1,-0.532555839921067,0.371772412169085,-4.65288981623488,3,12,7,2,2
5,5,1,1,1.28547961360258,-0.6506017212959,1.15089393448979,3,10,7,2,1
5,7,1,1,0.807403623972285,-0.395008187929654,0.838450575553437,3,8,3,2,0
5,9,1,1,0.120590230418908,-0.395008187929654,0.16111229713189,3,8,7,1,1
5,10,1,1,-0.956764112409917,-0.6506017212959,-3.66344172755165,7,10,3,1,2
5,11,1,1,2.44363553214356,2.6721142124653,1.62023922760073,3,12,3,1,1
5,12,1,1,0.369728422198074,2.6721142124653,1.22215597989402,7,12,3,1,1
5,13,1,1,0.107123301133548,-0.395008187929654,0.77680701913468,7,8,3,2,1
5,14,1,1,-0.24301686028582,-0.395008187929654,-0.762683758484679,3,12,7,2,0
5,15,1,1,-0.357485759211383,-0.395008187929654,0.928087606910666,7,8,7,2,0
5,16,1,1,-1.07123301133548,-0.395008187929654,1.15483440677062,3,12,3,2,2
5,17,1,1,-1.165501516333,-0.6506017212959,-1.20820666374015,3,10,3,1,2
5,18,1,1,-0.559489698491788,1.13855301226782,0.552737719899068,3,10,3,1,0
5,19,1,1,-0.344018829926022,-0.6506017212959,0.812442388046433,7,10,7,2,1
5,20,1,1,-0.707625920630751,-0.6506017212959,-1.62316730439788,3,10,7,1,0
5,21,1,1,-0.552756233849107,1.13855301226782,-0.86365725292096,7,10,7,1,1
5,22,1,1,-0.822094819556314,-0.395008187929654,-0.229026169550408,7,8,7,1,2
5,23,1,1,-0.465221193494265,-0.395008187929654,-0.193273826699522,7,12,7,1,0
5,24,1,1,-0.795160960985593,-0.395008187929654,0.473187333926,7,8,3,2,0
6,1,1,1,0.233148016104067,-0.401593372583645,1.99015569110441,3,8,7,2,1
6,2,1,1,2.25361710552058,0.912712210417374,1.81146463617851,7,12,3,2,1
6,3,1,1,0.111390490191631,0.912712210417374,1.38582312292518,3,8,7,1,0
6,4,1,1,0.813702016469159,-0.401593372583645,2.2042592051471,3,8,7,2,0
6,5,1,1,-0.336818373312119,-0.839695233583985,1.37725261089527,7,10,7,2,2
6,6,1,1,2.91004898435284,2.22701779341839,2.28533566093236,7,10,3,1,1
6,7,1,1,-0.0915387196624291,-0.401593372583645,1.9567437707273,3,8,3,1,2
6,8,1,1,0.0690400463960008,-0.401593372583645,1.35564182504462,3,8,7,1,2
6,9,1,1,0.40784359676104,-0.401593372583645,1.7127239556228,7,12,7,1,0
6,10,1,1,-0.66503431272825,-0.839695233583985,1.53000941118651,7,10,7,1,2
6,11,1,1,-0.430342270027468,-0.401593372583645,1.13133068112202,7,12,7,2,0
6,12,1,1,-0.864434318932674,-0.839695233583985,1.25021621509803,3,10,7,2,2
6,13,1,1,-0.118007747034698,-0.401593372583645,0.860055623077409,3,8,3,1,0
6,14,1,1,1.42954805333061,-0.839695233583985,2.29891890305487,3,10,3,2,0
6,15,1,1,-0.779733431341415,-0.401593372583645,0.727586965432871,3,12,3,2,1
6,16,1,1,0.317848903695326,-0.401593372583645,1.94522609321749,7,8,3,2,2
6,17,1,1,-1.05677591783783,0.912712210417374,0.29680988829734,3,12,7,1,1
6,18,1,1,-0.250352883896041,-0.401593372583645,0.446221453809416,3,12,3,2,2
6,19,1,1,-0.966781224772113,2.22701779341839,0.968390449288727,3,10,3,1,1
6,20,1,1,-0.91031396637794,2.22701779341839,1.33578437328706,7,10,7,1,1
6,21,1,1,-0.403873242655199,-0.839695233583985,1.64925350910856,7,10,3,1,0
6,22,1,1,-0.959722817472841,-0.401593372583645,0.626718382854517,7,12,3,1,2
6,23,1,1,-0.423283862728196,-0.401593372583645,0.914109585719513,7,8,7,2,1
6,24,1,1,-0.289174124042035,-0.401593372583645,0.392852920031667,7,12,3,2,0
7,1,1,1,1.46706724705617,-0.290957186981324,1.55694699918423,7,8,7,2,2
7,2,1,1,3.76560498367291,-0.290957186981324,1.77616711654758,3,8,7,1,2
7,3,1,1,0.939971510647681,-0.290957186981324,1.1298893837935,7,12,3,2,2
7,4,1,1,0.085942975707351,-0.290957186981324,-0.1652196516113,3,12,7,2,2
7,6,1,1,-0.254334018682937,-0.290957186981324,-1.04653400238359,7,8,3,1,0
7,7,1,1,-0.457833005524187,-0.290957186981324,-0.542228024210643,3,8,3,2,0
7,8,1,1,-0.368871699801236,-0.290957186981324,-1.62783512843348,3,8,3,2,1
7,9,1,1,0.065926681919687,-0.290957186981324,-0.525762343562505,3,8,7,1,1
7,10,1,1,-0.331063144868982,2.76409327632257,-1.58761874175172,7,10,3,1,2
7,12,1,1,-0.00524236265867385,1.23656804467062,0.594940266214803,7,12,3,1,1
7,13,1,1,-0.510097772636421,-0.290957186981324,-0.105740735220734,7,8,3,2,1
7,14,1,1,-0.472289217704167,-0.290957186981324,0.918286059646243,3,12,7,2,0
7,15,1,1,-0.541234229639454,-0.290957186981324,-3.69340249181034,7,8,7,2,0
7,16,1,1,-0.531226082745622,-0.290957186981324,-0.62170857516389,3,12,3,2,2
7,17,1,1,-0.294366606258265,-0.800132264198639,-0.75337901244193,3,10,3,1,2
7,19,1,1,-0.425584532199618,-0.800132264198639,-0.915313479928092,7,10,7,2,1
7,20,1,1,-0.446712842308818,-0.800132264198639,-1.24074256044747,3,10,7,1,0
7,21,1,1,-0.430032597485765,2.76409327632257,-0.47584245632937,7,10,7,1,1
7,22,1,1,-0.401120173125806,-0.290957186981324,-0.6183467426703,7,8,7,1,2
7,23,1,1,-0.516769870565642,-0.290957186981324,-0.812372477916359,7,12,7,1,0
7,24,1,1,-0.337735242798203,-0.290957186981324,0.411561786852494,7,8,3,2,0
8,1,1,1,1.74430280251217,-0.81401415689105,1.00420369857837,3,10,7,1,1
8,2,1,1,1.95922110775353,-0.222003860970287,0.782229230854441,3,8,3,2,0
8,3,1,1,1.11011763950489,-0.81401415689105,-0.368625740499866,7,10,3,2,2
8,4,1,1,1.51881474455403,-0.81401415689105,0.810944544299807,7,10,3,2,0
8,5,1,1,0.070758622354054,-0.222003860970287,0.210864030804373,3,8,3,1,1
8,6,1,1,-0.0490319084362115,1.554027026792,-1.22875451303151,7,12,7,2,0
8,7,1,1,1.08193163226012,-0.222003860970287,0.120468875297536,7,8,7,1,1
8,8,1,1,1.17353615580562,-0.222003860970287,0.640092932610202,3,8,3,2,2
8,9,1,1,-1.06020491834228,-0.222003860970287,-2.47001948922902,3,8,7,1,2
8,10,1,1,-0.817100605856149,-0.222003860970287,-0.116190485335127,7,8,3,1,0
8,11,1,1,-0.891088874873666,-0.222003860970287,-0.30099387626434,3,8,7,1,0
8,12,1,1,0.204642156766704,-0.222003860970287,1.47536114035311,7,8,7,1,0
8,13,1,1,-0.426019755334988,-0.222003860970287,-1.90831759098113,7,8,3,1,1
8,14,1,1,-0.820623856761745,-0.222003860970287,-0.625074578586722,3,12,7,2,2
8,15,1,1,-0.915751631212838,-0.81401415689105,0.349239223997585,3,10,7,2,1
8,16,1,1,0.704943785361342,-0.222003860970287,0.56824568145791,7,12,7,2,2
8,17,1,1,0.641525269060613,3.3300579145543,0.0727788999061541,7,10,7,2,1
8,18,1,1,-0.993263151135951,1.554027026792,1.52971377390128,3,12,3,1,2
8,19,1,1,-0.140636431981709,-0.222003860970287,1.6501322973892,7,12,3,2,1
8,20,1,1,-1.05315841653108,-0.222003860970287,-0.0546613405194018,3,12,3,1,0
8,21,1,1,-0.898135376684858,1.554027026792,1.08981140424613,7,8,7,1,2
8,22,1,1,-0.947460889363202,-0.81401415689105,1.68876993265991,3,10,3,2,1
8,23,1,1,-0.95803064207999,-0.81401415689105,-1.57609319879592,7,10,3,1,2
8,24,1,1,-0.239287457338398,-0.222003860970287,-0.309447660369373,3,12,7,2,0
9,1,1,1,0.260359713264582,-0.375540841706121,0.424575317818571,7,8,7,1,0
9,2,1,1,0.872162075787297,0.706016782407506,0.538492197251761,3,8,7,1,2
9,3,1,1,0.0506971058832025,0.706016782407506,0.0730488386331466,3,12,3,2,2
9,4,1,1,0.229425885946018,-0.375540841706121,0.208823236297582,7,12,3,2,2
9,5,1,1,0.555949618753085,-0.375540841706121,0.133255805870517,7,8,3,1,1
9,6,1,1,-0.45455540698668,-0.375540841706121,0.280107754943756,7,8,7,1,2
9,7,1,1,0.188180782854599,-0.736060049743996,-2.56509312011671,7,10,7,2,1
9,8,1,1,3.27468933086245,-0.375540841706121,1.69077879157182,3,8,7,2,2
9,9,1,1,0.0575712897317723,3.95068965474839,-0.35564834791843,3,12,7,1,1
9,10,1,1,-0.433932855440971,0.706016782407506,0.0458203286655956,7,12,3,1,0
9,11,1,1,1.06463922354725,-0.736060049743996,0.921448146415416,3,10,3,2,0
9,12,1,1,-0.884191897522294,-0.375540841706121,-1.09336486617843,7,8,7,1,1
9,13,1,1,-0.976993379477987,0.706016782407506,-0.414390695407255,3,12,3,1,1
9,14,1,1,0.896221719257292,-0.375540841706121,0.871438097425054,3,8,3,1,0
9,15,1,1,-0.578290716260937,0.706016782407506,-0.155719806196925,7,8,3,2,1
9,16,1,1,-0.949496644083708,-0.375540841706121,0.153644669796473,3,12,3,2,1
9,17,1,1,-0.743271128626613,-0.736060049743996,0.911306408448154,7,10,3,2,0
9,18,1,1,-0.935748276386568,0.706016782407506,-0.912523237075185,3,12,7,1,0
9,19,1,1,0.384095022538839,-0.736060049743996,-0.520656860028243,3,10,7,2,0
9,20,1,1,1.22618254398864,-0.375540841706121,0.710248244440858,3,12,3,1,2
9,21,1,1,-0.616098727428071,-0.375540841706121,-1.26193057066696,3,8,7,2,1
9,22,1,1,-0.66421801436806,-0.375540841706121,-0.0326267653683891,7,8,7,2,2
9,23,1,1,-1.21071563032936,-0.375540841706121,-1.73277665800218,7,8,3,1,2
9,24,1,1,-0.612661635503786,-0.736060049743996,0.431893701776271,7,10,7,2,0
10,1,1,1,0.296138490004323,-0.435642635968827,-0.0614231666635406,7,12,3,1,2
10,2,1,1,-0.863279046458227,-0.91088914793482,-0.289370477227903,7,10,3,1,0
10,3,1,1,-0.850710834680855,0.990096899929152,-0.421447942189355,7,12,7,1,1
10,4,1,1,0.726599743379308,-0.435642635968827,0.189601425311859,7,8,7,2,2
10,5,1,1,-0.0212088573743149,-0.435642635968827,0.708042752794671,7,12,7,2,1
10,6,1,1,1.78232953267854,0.990096899929152,-0.483970195466248,7,12,7,1,2
10,7,1,1,0.113899419232432,0.990096899929152,0.681731100210542,3,8,3,1,0
10,8,1,1,0.393542131278955,-0.91088914793482,-0.0961918905765052,3,10,7,1,2
10,9,1,1,-0.341698257697296,2.41583643582713,0.907750511096668,3,10,3,2,0
10,10,1,1,-0.401397263639812,-0.91088914793482,-0.316166186061616,7,10,3,2,0
10,11,1,1,-0.0777658103724881,0.990096899929152,-0.512246732159966,7,8,7,2,0
10,12,1,1,0.73916795515668,-0.435642635968827,0.900311594216948,3,12,7,2,2
10,13,1,1,-0.674755869797649,-0.91088914793482,-0.43208577416735,7,10,3,1,1
10,14,1,1,-0.995245270120631,-0.435642635968827,0.112179509164579,3,8,7,2,1
10,15,1,1,2.75008183953617,-0.91088914793482,0.965584738518813,7,10,7,1,0
10,16,1,1,0.54750272555176,-0.435642635968827,-0.620403130918408,3,12,3,2,2
10,17,1,1,0.849139808208683,-0.435642635968827,0.787337646529121,3,8,3,2,1
10,18,1,1,-0.847568781736512,-0.435642635968827,-0.98474040665765,3,12,3,1,2
10,19,1,1,-1.33772904105401,0.990096899929152,-1.31978704365833,3,12,7,1,1
10,20,1,1,0.054200413289916,2.41583643582713,-0.0289868779177935,3,10,7,2,0
10,21,1,1,-1.3440131469427,-0.435642635968827,-0.0315040916971202,7,12,3,2,1
10,22,1,1,1.07536762020138,-0.435642635968827,0.662940937251131,3,8,7,1,0
10,23,1,1,-0.800437987571368,-0.435642635968827,0.845270921519104,3,8,3,1,1
10,24,1,1,-0.772159511072281,-0.435642635968827,-0.696842405799535,7,8,3,2,2
12,1,1,1,1.63379658227562,-0.0687084700658151,3.83162361180836,7,8,7,2,2
12,2,1,1,1.03887795843342,-0.0687084700658151,4.26938340801075,3,8,7,1,2
12,3,1,1,0.997957629809359,-0.0687084700658151,3.60382742578249,7,12,3,2,2
12,4,1,1,1.58343310089215,-0.0687084700658151,4.59788250253144,3,12,7,2,2
12,5,1,1,-0.558588716698391,-0.893210110855586,2.25243676786301,3,10,7,2,1
12,6,1,1,0.946020289632659,-0.0687084700658151,3.73713037043723,7,8,3,1,0
12,7,1,1,1.61018870037712,-0.0687084700658151,4.08045053527259,3,8,3,2,0
12,8,1,1,0.340084654237832,-0.0687084700658151,3.50212238607146,3,8,3,2,1
12,9,1,1,0.333789219064899,-0.0687084700658151,3.88033093943575,3,8,7,1,1
12,10,1,1,0.920838548940926,-0.893210110855586,4.35632996801024,7,10,3,1,2
12,11,1,1,0.90352610221536,2.4047964523035,4.01207624714857,3,12,3,1,1
12,12,1,1,-0.234373805292328,2.4047964523035,3.65309740369333,7,12,3,1,1
12,13,1,1,-1.11416087070975,-0.0687084700658151,3.10515610029101,7,8,3,2,1
12,14,1,1,-0.324083756506627,-0.0687084700658151,2.2946438681234,3,12,7,2,0
12,15,1,1,-0.621543068427724,-0.0687084700658151,3.14666934782121,7,8,7,2,0
12,16,1,1,0.417203735106265,-0.0687084700658151,3.50996759968649,3,12,3,2,2
12,17,1,1,-0.659315679465324,-0.893210110855586,3.7602955784581,3,10,3,1,2
12,18,1,1,-0.846604875860088,-0.893210110855586,1.9447064257507,3,10,3,1,0
12,19,1,1,-1.26997289123985,-0.893210110855586,2.06792655014238,7,10,7,2,1
12,20,1,1,-1.03074635466839,-0.893210110855586,2.08015258985065,3,10,7,1,0
12,21,1,1,-0.819849276375122,-0.893210110855586,1.08420604346905,7,10,7,1,1
12,22,1,1,-0.936314827074387,-0.0687084700658151,2.73871230924565,7,8,7,1,2
12,23,1,1,-0.99454760242402,2.4047964523035,3.25808599011216,7,12,7,1,0
12,24,1,1,-1.31561479624362,-0.0687084700658151,3.60199441605972,7,8,3,2,0
13,1,1,1,0.786978041941942,3.07487454701057,0.862354040323459,7,10,7,1,1
13,2,1,1,0.495618884396345,-0.229468249776909,-0.0522317938931998,3,8,3,1,1
13,3,1,1,-0.376146213974209,1.42270314861683,0.0841625888577737,3,12,7,1,0
13,4,1,1,0.958093737643324,-0.229468249776909,0.717136683269538,3,8,7,2,1
13,5,1,1,1.40669434529289,-0.229468249776909,0.926494014651935,7,12,3,1,2
13,6,1,1,0.810101784604291,-0.780192049241489,0.325053339405612,7,10,3,2,2
13,7,1,1,1.27951376064997,-0.780192049241489,-1.19882686432133,3,10,3,2,2
13,8,1,1,1.39744484822795,1.42270314861683,0.703417689952424,7,12,3,1,1
13,9,1,1,0.49793125866258,1.42270314861683,0.699861985860605,3,12,7,2,2
13,10,1,1,0.523367375591164,-0.780192049241489,-1.16631224167402,3,10,7,2,0
13,11,1,1,0.375375422552131,-0.229468249776909,0.449123479718492,7,12,3,1,0
13,12,1,1,1.19164353853305,-0.229468249776909,0.83764166117948,7,12,7,2,2
13,13,1,1,0.363813551220956,-0.229468249776909,0.905794034851605,3,8,3,2,0
13,14,1,1,-0.850182938552362,-0.780192049241489,-0.316851244078938,3,10,3,2,1
13,15,1,1,-1.11379360490314,-0.229468249776909,-0.515289389322792,3,8,3,1,2
13,16,1,1,0.449371399071647,-0.780192049241489,0.627531596124952,7,10,7,1,2
13,17,1,1,0.0886410135390041,-0.229468249776909,0.736885738475265,7,12,3,2,1
13,18,1,1,-1.7011366685268,-0.780192049241489,-0.637327291990776,3,10,3,1,0
13,19,1,1,-0.998174891591396,-0.229468249776909,0.762372666174815,7,8,7,1,0
13,20,1,1,-0.713752856844504,1.42270314861683,1.32230030977599,3,12,7,1,1
13,21,1,1,-1.05367187398103,-0.780192049241489,0.441514836668935,3,10,7,1,2
13,22,1,1,-1.33809390872792,-0.229468249776909,-0.711429604046845,7,12,7,2,1
13,23,1,1,-1.4490878735072,-0.780192049241489,-0.334048399115455,7,10,7,2,0
13,24,1,1,-1.03054813131868,-0.229468249776909,0.508969312716493,7,8,3,2,0
14,2,1,1,-0.315219554572394,-0.268182305786454,7.60694985268899,3,8,7,1,2
14,3,1,1,1.56452084710522,1.50182091240414,9.72909994168988,7,12,7,2,2
14,4,1,1,0.895953384652873,-0.858183378516652,8.78569153157846,7,10,3,1,1
14,10,1,1,-0.765083789141779,1.50182091240414,7.88643615302805,3,12,3,1,2
14,11,1,1,-0.994860598183372,-0.268182305786454,7.05305453480744,7,8,7,2,1
14,16,1,1,-0.456407714344939,-0.268182305786454,7.21670415952064,7,12,7,1,1
14,17,1,1,-0.665421558714099,-0.858183378516652,8.99114050020605,7,10,7,2,0
14,19,1,1,0.513914834680103,-0.268182305786454,9.91600339689196,7,8,3,2,2
14,20,1,1,-0.986555412314399,1.50182091240414,9.42831603525239,3,12,3,1,1
14,22,1,1,1.71262999510191,-0.858183378516652,8.07731182446239,7,10,3,1,0
14,24,1,1,-0.503470434269121,-0.858183378516652,8.0227377547295,7,10,7,1,2
15,1,1,1,1.08278858340077,-0.715491385636572,-1.46328469751688,3,8,7,2,2
15,2,1,1,0.64626485667867,0.946295058422562,-1.64909285211627,3,10,7,1,0
15,3,1,1,2.21932333135292,0.115401836392995,-0.656785556367296,3,12,3,2,0
15,4,1,1,1.31874735460191,0.115401836392995,-1.08924831638302,3,12,3,1,0
15,5,1,1,0.249067591823422,0.115401836392995,-3.19136729644281,7,12,7,1,1
15,6,1,1,2.44741681018068,-0.99245579297976,-0.297935755247662,3,10,3,1,2
15,7,1,1,-0.671171615861012,-0.715491385636572,-1.53891264024053,7,8,3,1,0
15,8,1,1,-0.710498077727868,2.6080815024817,-1.19752475001484,3,12,7,1,1
15,9,1,1,1.01593359822712,-0.715491385636572,-1.61981121661232,3,8,7,1,2
15,10,1,1,-0.226782596765537,0.946295058422562,-3.37877694378778,7,10,3,2,0
15,11,1,1,0.103559682916055,-0.715491385636572,-4.88570165477062,3,8,7,2,0
15,12,1,1,0.426036670224275,-0.715491385636572,-3.62987897914755,7,8,3,1,2
15,13,1,1,-0.0340829336179419,-0.715491385636572,-1.4843642834437,7,8,7,1,2
15,14,1,1,-0.970052726049118,0.115401836392995,-2.81940695040357,3,12,3,2,2
15,15,1,1,-1.1116279887698,0.115401836392995,-5.56521288190582,7,12,3,2,2
15,16,1,1,-0.66330632348764,0.115401836392995,-2.16416750166163,3,12,7,2,1
15,17,1,1,-0.541394291700386,2.6080815024817,-3.97888913984804,3,12,3,1,1
15,18,1,1,-1.02117712647603,0.115401836392995,-6.23362194657043,7,12,7,2,2
15,19,1,1,-0.266109058632393,-0.715491385636572,-0.52037547993615,7,8,7,2,0
15,20,1,1,-0.596451338313985,-0.715491385636572,-2.99850134923346,7,8,3,2,1
15,21,1,1,-0.616114569247413,-0.715491385636572,-2.9677117312522,3,8,3,2,1
15,22,1,1,-0.293637581939192,0.946295058422562,-2.78243590995842,7,10,7,2,1
15,23,1,1,-0.793083647648266,-0.715491385636572,-3.1957161030549,7,8,3,1,1
15,24,1,1,-0.993648603169232,-0.715491385636572,-3.99772654330507,7,8,7,1,0
16,1,1,1,-0.0767076766725516,-0.300796416641907,2.4283439438582,3,12,7,2,2
16,2,1,1,-0.0369333258053026,-0.300796416641907,1.83363824762458,3,8,7,1,2
16,3,1,1,1.44202314929934,-0.300796416641907,2.68744582373041,7,12,7,2,2
16,4,1,1,-0.737448933936647,1.76180758318831,2.11132235250695,7,10,3,1,1
16,5,1,1,-0.0734607908874701,-0.300796416641907,2.64712221933458,3,12,3,2,1
16,6,1,1,0.620561045673711,-0.300796416641907,2.60057810024365,7,8,3,2,1
16,7,1,1,-0.0109582395246502,-0.300796416641907,2.19892503180771,7,8,3,2,0
16,8,1,1,-0.339705425264157,-0.644563749946943,1.63545759051718,3,10,7,2,1
16,9,1,1,-0.334023375140264,-0.300796416641907,1.54361746349086,3,8,3,1,0
16,10,1,1,-1.01181078277604,0.730505583273202,2.54950314353031,3,12,3,1,2
16,11,1,1,2.18961860131437,-0.300796416641907,3.18046878331023,7,8,7,2,1
16,12,1,1,-0.677381546912638,-0.644563749946943,1.80343406342613,7,10,3,1,2
16,13,1,1,0.749624755630703,-0.300796416641907,3.10932173501957,3,8,7,2,0
16,14,1,1,-0.898981501744454,0.730505583273202,0.912599793761113,3,12,3,2,2
16,15,1,1,-0.22038237266241,-0.644563749946943,2.72792817740268,3,10,7,1,0
16,16,1,1,0.573481201790029,3.82441158301853,2.24372239544583,7,12,7,1,1
16,17,1,1,0.221194094108681,-0.644563749946943,2.4298499559748,7,10,7,2,0
16,18,1,1,-0.839725836166716,-0.300796416641907,1.82340484812557,7,12,7,1,0
16,19,1,1,-0.0702139051023885,-0.300796416641907,2.45516230623217,7,8,3,2,2
16,20,1,1,-0.574292923236299,0.730505583273202,1.90841974373745,3,12,3,1,1
16,21,1,1,2.82925510097544,-0.300796416641907,3.21288748126812,3,12,3,2,0
16,22,1,1,-0.585657023484085,-0.644563749946943,1.59758514730439,7,10,3,1,0
16,23,1,1,-1.0183045543462,-0.300796416641907,1.08078226891613,3,8,7,1,1
16,24,1,1,-1.11976973513,-0.644563749946943,1.4429628963754,7,10,7,1,2
17,1,1,1,1.15396500324483,-0.25993450567827,2.02763721516939,3,8,7,2,1
17,2,1,1,2.26490879391686,1.07687152352426,3.0971892700894,7,12,7,2,1
17,3,1,1,0.419764882326164,-0.25993450567827,3.61599427403223,3,8,3,2,2
17,4,1,1,1.66186175939697,-0.25993450567827,2.81024924941665,7,8,7,1,1
17,5,1,1,-0.633317252581696,-0.705536515412446,1.14908751100399,7,10,3,1,2
17,6,1,1,0.574062631030612,2.41367755272679,2.05484525971523,7,10,3,1,1
17,7,1,1,-0.818474551027034,-0.705536515412446,1.05533214903611,3,10,3,1,2
17,8,1,1,-0.94705600828074,-0.705536515412446,2.06987553433834,3,10,7,2,0
17,9,1,1,-1.19264659163532,-0.25993450567827,1.6037443938035,7,8,3,2,0
17,10,1,1,1.63228802422862,-0.25993450567827,2.3888505403382,7,8,3,2,1
17,11,1,1,-0.875050392218665,-0.705536515412446,1.40169605747521,3,10,3,2,0
17,12,1,1,-0.68860727920079,-0.25993450567827,1.8093613494075,7,8,7,1,2
17,13,1,1,0.620351955641947,-0.705536515412446,2.95540718630472,3,10,7,1,1
17,14,1,1,-0.76318452440794,-0.705536515412446,1.93704373283631,7,10,3,2,2
17,15,1,1,-0.148565158735221,-0.25993450567827,2.28939899620933,3,12,3,1,1
17,16,1,1,-0.692464722918401,-0.705536515412446,1.77501537502701,3,10,3,2,1
17,17,1,1,-0.00583974118360595,-0.25993450567827,3.0104793367846,7,8,7,2,0
17,18,1,1,-0.299005463722058,2.41367755272679,2.15624578676718,7,10,3,1,0
17,19,1,1,1.0523856520144,-0.25993450567827,3.15815174191393,3,12,7,1,2
17,20,1,1,-0.439159252128598,-0.25993450567827,2.7238166703963,7,8,7,1,0
