Subject,Trial,Gaussian_Centroid,Standard_Deviation,Reaction_Time,Secondary_Task_Acc,Net_Cognitive_Load,Speed,Number_of_Fish,Turbidity,CameraDistance,Fish_Type
1,1,1,0.1,2.28434771725881,-0.255609437163093,0.264300139791881,7,8,3,1,0
1,3,1,0.1,-0.171026510066587,-0.843511142638205,-0.958834506466587,3,10,3,1,1
1,4,1,0.1,1.60070853734751,1.50809567926225,7.46019101855974,3,12,3,1,2
1,5,1,0.1,-0.385782273389508,-0.255609437163093,0.338864049441363,7,12,3,1,2
1,6,1,0.1,0.0186744142019933,-0.255609437163093,0.88823330100868,7,12,3,2,0
1,7,1,0.1,-0.0672278911271752,-0.255609437163093,2.61998346536886,7,12,7,2,0
1,8,1,0.1,-0.471684578718677,-0.255609437163093,-2.93071466351069,3,12,3,2,0
1,9,1,0.1,-0.428733426054093,-0.255609437163093,-2.37966978761239,3,8,7,2,0
1,10,1,0.1,-0.740129282872328,-0.255609437163093,-0.0573148398923011,7,8,3,2,2
1,11,1,0.1,-0.840348639089692,-0.843511142638205,-0.0811166136224573,7,10,7,1,1
1,12,1,0.1,-0.718653706540036,-0.255609437163093,-0.474711702802319,7,8,7,1,0
1,13,1,0.1,-0.16386798462249,1.50809567926225,3.4104437367103,3,12,7,1,0
1,14,1,0.1,-0.919092418974763,-0.255609437163093,0.392691628174288,7,8,3,1,1
1,15,1,0.1,1.10677028170479,-0.843511142638205,0.413701576392,3,10,7,1,2
1,16,1,0.1,0.240588702969012,-0.843511142638205,1.56900792097984,3,10,7,2,2
1,17,1,0.1,2.69954219301646,1.50809567926225,8.70839265170054,7,12,7,1,2
1,18,1,0.1,0.430289627237592,-0.255609437163093,-0.0602979871586479,7,8,7,2,1
1,19,1,0.1,-0.679281816597501,-0.255609437163093,1.74631123379574,7,8,3,2,1
1,20,1,0.1,-0.546849095881699,-0.843511142638205,-6.48811986269463,7,10,7,2,2
1,21,1,0.1,-0.443050476942287,-0.255609437163093,2.71098646591482,3,8,3,2,2
1,22,1,0.1,-0.29987996806034,-0.255609437163093,2.94656283194706,3,8,3,2,1
1,23,1,0.1,-0.589800248546284,3.27180079568758,1.57335737583375,3,10,3,1,0
1,24,1,0.1,-0.915513156252714,-0.255609437163093,-0.74268600206395,3,8,7,1,1
2,1,1,0.1,0.464088670255891,-0.420558293861036,0.876381098764356,7,12,3,1,2
2,2,1,0.1,1.02587331658995,1.53300281310635,2.266818184403,7,10,3,1,0
2,3,1,0.1,0.830743635510334,3.48656392007375,1.80959926022819,7,12,7,1,1
2,4,1,0.1,1.23673926227276,-0.420558293861036,0.999352079656983,7,8,7,2,2
2,5,1,0.1,-0.0221619059828328,-0.420558293861036,1.69019453721882,7,12,7,2,1
2,6,1,0.1,0.674954615938704,0.556222259622659,0.15258636170955,7,12,7,1,2
2,7,1,0.1,1.43029531689206,-0.420558293861036,0.441329903277174,3,8,3,1,0
2,8,1,0.1,1.83943819657513,-0.746151811688934,2.36711738834969,3,10,7,1,2
2,9,1,0.1,0.0816974403982539,-0.746151811688934,0.271205345289376,3,10,3,2,0
2,10,1,0.1,-0.402979509380151,-0.746151811688934,-0.279308670469937,7,10,3,2,0
2,11,1,0.1,-0.0945487231575296,-0.420558293861036,1.17355741424389,7,8,7,2,0
2,12,1,0.1,0.169820522176146,0.556222259622659,1.25120485568506,3,12,7,2,2
2,13,1,0.1,-0.989942179079322,1.53300281310635,0.259503975399298,7,10,3,1,1
2,14,1,0.1,1.68050192408286,-0.420558293861036,0.550000593469007,3,8,7,2,1
2,15,1,0.1,-1.0607553697937,-0.746151811688934,0.964785094787875,7,10,7,1,0
2,16,1,0.1,-0.612271828602644,-0.420558293861036,2.01848180139885,3,12,3,2,2
2,17,1,0.1,0.475104055478128,0.556222259622659,0.465607897147427,3,8,3,2,1
2,18,1,0.1,-0.115005867141683,-0.420558293861036,0.172559261977464,3,12,3,1,2
2,19,1,0.1,-0.706689416221813,0.556222259622659,0.546186328076978,3,12,7,1,1
2,20,1,0.1,-1.42268945566718,-0.746151811688934,1.70908678464752,3,10,7,2,0
2,21,1,0.1,-0.635876225507436,-0.420558293861036,-0.713941060231838,7,12,3,2,1
2,22,1,0.1,-1.38649604707984,-0.420558293861036,0.521921936393585,3,8,7,1,0
2,23,1,0.1,-1.20080812476213,-0.420558293861036,-0.684030043411954,3,8,3,1,1
2,24,1,0.1,-1.25903230379396,-0.420558293861036,0.774964161097885,7,8,3,2,2
3,1,1,0.1,3.2587883326523,-0.313103974450949,1.14265192175109,7,8,3,2,0
3,2,1,0.1,0.338950201642425,1.29714503701107,2.05472737765867,3,8,3,1,0
3,3,1,0.1,0.773530760676452,-0.313103974450949,0.783485195723373,3,8,7,2,2
3,4,1,0.1,-0.231436782089736,1.29714503701107,-0.788932012596979,7,8,3,1,1
3,5,1,0.1,-0.557372201365257,-0.313103974450949,2.17361749416348,7,8,7,1,1
3,6,1,0.1,-0.163533569740669,2.90739404847309,-0.851946901733544,7,10,7,2,1
3,7,1,0.1,-0.38761417049259,-0.849853644938288,0.7093786389762,7,10,3,1,2
3,8,1,0.1,-0.28575935196899,1.29714503701107,3.16441660124271,7,8,7,2,0
3,9,1,0.1,-0.143162606035949,1.29714503701107,-0.148536217806783,3,12,7,1,1
3,10,1,0.1,-0.808614087056804,-0.849853644938288,-1.32196656061171,7,10,3,2,2
3,11,1,0.1,-0.964791475459657,-0.849853644938288,-1.38986599969738,3,10,7,1,0
3,12,1,0.1,-0.849356014466244,1.29714503701107,-1.51173528823384,3,12,3,1,1
3,13,1,0.1,-0.50983995272091,-0.313103974450949,3.14429419324278,3,12,7,2,0
3,14,1,0.1,0.522288874984905,-0.849853644938288,0.42954839215608,3,10,3,2,2
3,15,1,0.1,-0.910468905580404,-0.849853644938288,-0.746540959313829,7,10,3,2,1
3,16,1,0.1,-0.217856139619923,-0.313103974450949,0.149516361254074,3,8,3,1,2
3,17,1,0.1,-0.231436782089736,-0.313103974450949,0.26118797995704,7,8,3,1,0
3,18,1,0.1,0.0605470310112509,-0.313103974450949,0.321084897543594,3,8,3,2,0
3,19,1,0.1,0.0130147823669042,-0.313103974450949,0.127630858297898,3,8,7,1,2
3,20,1,0.1,0.705627548327385,-0.313103974450949,-0.201825691221897,7,12,7,2,2
3,21,1,0.1,0.352530844112238,-0.313103974450949,4.84830986476709,3,12,7,2,1
3,22,1,0.1,2.17233693506723,-0.849853644938288,-0.0610631142230773,3,10,3,2,1
3,23,1,0.1,-1.10059790015779,-0.849853644938288,-1.13246679120017,7,10,7,1,2
3,24,1,0.1,-0.83577537199643,-0.313103974450949,0.255839894595315,7,12,7,1,0
4,1,1,0.1,-0.00888346395525166,-0.0591726335413945,0.279174355417282,3,8,7,2,1
4,2,1,0.1,2.30747976237662,-0.0591726335413945,1.53959719325923,7,12,7,2,1
4,3,1,0.1,1.46799241860534,-0.0591726335413945,0.934688703303847,3,8,3,2,2
4,4,1,0.1,0.81505781789434,-0.0591726335413945,0.190354458734893,7,8,7,1,1
4,5,1,0.1,0.370884620131757,-0.68048528572603,1.04817662437282,7,10,3,1,2
4,6,1,0.1,0.0954972375189553,3.66870327956642,1.60434963816858,7,10,3,1,1
4,7,1,0.1,-0.144356289272839,-0.68048528572603,0.420502900262904,3,10,3,1,2
4,9,1,0.1,-1.33029872729894,-0.0591726335413945,-1.56977671148039,7,8,3,2,0
4,10,1,0.1,-1.01271489089869,-0.0591726335413945,2.34947967942227,7,8,3,2,1
4,11,1,0.1,-0.424185403863267,-0.68048528572603,0.0742657333879535,3,10,3,2,0
4,12,1,0.1,0.21320313492604,-0.0591726335413945,-0.266544654634926,7,8,7,1,2
4,13,1,0.1,-0.684026724554378,-0.68048528572603,1.79418782434006,3,10,7,1,1
4,14,1,0.1,-0.746210972241139,-0.68048528572603,-0.834862188508615,7,10,3,2,2
4,15,1,0.1,0.470823589628338,1.80476532301251,0.614553612843612,3,12,3,1,1
4,16,1,0.1,0.262062186679924,-0.68048528572603,2.26105032443173,3,10,3,2,1
4,17,1,0.1,0.981622767055308,-0.0591726335413945,2.02240141126153,7,8,7,2,0
4,19,1,0.1,-1.1348625202834,-0.0591726335413945,1.18593804557989,3,12,7,1,2
4,21,1,0.1,1.17927984005966,-0.68048528572603,2.49003758202911,3,10,3,1,0
4,22,1,0.1,-1.33029872729894,-0.0591726335413945,0.299552229740652,7,8,7,2,2
4,23,1,0.1,0.0444173197762583,-0.0591726335413945,0.794640802941614,3,12,7,1,0
4,24,1,0.1,-1.3924829749857,-0.0591726335413945,0.0384575579940206,3,12,7,2,2
5,1,1,0.1,2.16756348179368,-0.395008187929654,1.91558095565621,7,8,7,2,2
5,2,1,0.1,1.08347567432217,-0.395008187929654,-1.82146298815305,3,8,7,1,2
5,3,1,0.1,0.18792487684571,-0.395008187929654,3.55895784616031,7,12,3,2,2
5,4,1,0.1,-0.532555839921067,0.371772412169085,-5.85441565780008,3,12,7,2,2
5,5,1,0.1,1.28547961360258,-0.6506017212959,2.94598810796578,3,10,7,2,1
5,7,1,0.1,0.807403623972285,-0.395008187929654,-0.474541387320101,3,8,3,2,0
5,9,1,0.1,0.120590230418908,-0.395008187929654,0.533148585584275,3,8,7,1,1
5,10,1,0.1,-0.956764112409917,-0.6506017212959,-1.54688189614502,7,10,3,1,2
5,11,1,0.1,2.44363553214356,2.6721142124653,23.2036807227682,3,12,3,1,1
5,12,1,0.1,0.369728422198074,2.6721142124653,0.0182644089464576,7,12,3,1,1
5,13,1,0.1,0.107123301133548,-0.395008187929654,0.609818153297345,7,8,3,2,1
5,14,1,0.1,-0.24301686028582,-0.395008187929654,-4.14682392636381,3,12,7,2,0
5,15,1,0.1,-0.357485759211383,-0.395008187929654,-0.86489295810955,7,8,7,2,0
5,16,1,0.1,-1.07123301133548,-0.395008187929654,0.0460775773721851,3,12,3,2,2
5,17,1,0.1,-1.165501516333,-0.6506017212959,-3.69947518007478,3,10,3,1,2
5,18,1,0.1,-0.559489698491788,1.13855301226782,-1.69550250203547,3,10,3,1,0
5,19,1,0.1,-0.344018829926022,-0.6506017212959,-1.12273301716048,7,10,7,2,1
5,20,1,0.1,-0.707625920630751,-0.6506017212959,-3.35926183956519,3,10,7,1,0
5,21,1,0.1,-0.552756233849107,1.13855301226782,-4.22967357702974,7,10,7,1,1
5,22,1,0.1,-0.822094819556314,-0.395008187929654,-2.94543626227686,7,8,7,1,2
5,23,1,0.1,-0.465221193494265,-0.395008187929654,-2.1038121344945,7,12,7,1,0
5,24,1,0.1,-0.795160960985593,-0.395008187929654,-1.15219488006431,7,8,3,2,0
6,1,1,0.1,0.233148016104067,-0.401593372583645,2.20961643987008,3,8,7,2,1
6,2,1,0.1,2.25361710552058,0.912712210417374,0.151733998072933,7,12,3,2,1
6,3,1,0.1,0.111390490191631,0.912712210417374,-0.0590198128431026,3,8,7,1,0
6,4,1,0.1,0.813702016469159,-0.401593372583645,0.618607610726598,3,8,7,2,0
6,5,1,0.1,-0.336818373312119,-0.839695233583985,0.800496627998423,7,10,7,2,2
6,6,1,0.1,2.91004898435284,2.22701779341839,1.26801752481811,7,10,3,1,1
6,7,1,0.1,-0.0915387196624291,-0.401593372583645,1.63826815447648,3,8,3,1,2
6,8,1,0.1,0.0690400463960008,-0.401593372583645,0.427118317034887,3,8,7,1,2
6,9,1,0.1,0.40784359676104,-0.401593372583645,0.612767537115243,7,12,7,1,0
6,10,1,0.1,-0.66503431272825,-0.839695233583985,0.0311330765953966,7,10,7,1,2
6,11,1,0.1,-0.430342270027468,-0.401593372583645,1.26973211300326,7,12,7,2,0
6,12,1,0.1,-0.864434318932674,-0.839695233583985,-0.804965026418293,3,10,7,2,2
6,13,1,0.1,-0.118007747034698,-0.401593372583645,-0.744728261536702,3,8,3,1,0
6,14,1,0.1,1.42954805333061,-0.839695233583985,1.02895439162687,3,10,3,2,0
6,15,1,0.1,-0.779733431341415,-0.401593372583645,-1.69317134055727,3,12,3,2,1
6,16,1,0.1,0.317848903695326,-0.401593372583645,0.20486986093662,7,8,3,2,2
6,17,1,0.1,-1.05677591783783,0.912712210417374,-1.42988931256767,3,12,7,1,1
6,18,1,0.1,-0.250352883896041,-0.401593372583645,-1.55283017671142,3,12,3,2,2
6,19,1,0.1,-0.966781224772113,2.22701779341839,0.978209049392778,3,10,3,1,1
6,20,1,0.1,-0.91031396637794,2.22701779341839,0.814449247331495,7,10,7,1,1
6,21,1,0.1,-0.403873242655199,-0.839695233583985,1.17105063586265,7,10,3,1,0
6,22,1,0.1,-0.959722817472841,-0.401593372583645,-1.78848203442261,7,12,3,1,2
6,23,1,0.1,-0.423283862728196,-0.401593372583645,3.40066860683581,7,8,7,2,1
6,24,1,0.1,-0.289174124042035,-0.401593372583645,4.26671567173215,7,12,3,2,0
7,1,1,0.1,1.46706724705617,-0.290957186981324,1.71354931756934,7,8,7,2,2
7,2,1,0.1,3.76560498367291,-0.290957186981324,3.83501384725641,3,8,7,1,2
7,3,1,0.1,0.939971510647681,-0.290957186981324,1.64215865845183,7,12,3,2,2
7,4,1,0.1,0.085942975707351,-0.290957186981324,-0.0457384140679068,3,12,7,2,2
7,6,1,0.1,-0.254334018682937,-0.290957186981324,-1.47088399973209,7,8,3,1,0
7,7,1,0.1,-0.457833005524187,-0.290957186981324,2.86258440423262,3,8,3,2,0
7,8,1,0.1,-0.368871699801236,-0.290957186981324,0.592268373110538,3,8,3,2,1
7,9,1,0.1,0.065926681919687,-0.290957186981324,-1.82119569616213,3,8,7,1,1
7,10,1,0.1,-0.331063144868982,2.76409327632257,-1.1231402949483,7,10,3,1,2
7,12,1,0.1,-0.00524236265867385,1.23656804467062,0.327381617831071,7,12,3,1,1
7,13,1,0.1,-0.510097772636421,-0.290957186981324,0.642729215886759,7,8,3,2,1
7,14,1,0.1,-0.472289217704167,-0.290957186981324,1.537896234078,3,12,7,2,0
7,15,1,0.1,-0.541234229639454,-0.290957186981324,-2.73654140197151,7,8,7,2,0
7,16,1,0.1,-0.531226082745622,-0.290957186981324,-0.742186681265646,3,12,3,2,2
7,17,1,0.1,-0.294366606258265,-0.800132264198639,0.175242055606693,3,10,3,1,2
7,19,1,0.1,-0.425584532199618,-0.800132264198639,0.943304889039403,7,10,7,2,1
7,20,1,0.1,-0.446712842308818,-0.800132264198639,1.03374231113469,3,10,7,1,0
7,21,1,0.1,-0.430032597485765,2.76409327632257,-1.79280474904439,7,10,7,1,1
7,22,1,0.1,-0.401120173125806,-0.290957186981324,-0.151895429697829,7,8,7,1,2
7,23,1,0.1,-0.516769870565642,-0.290957186981324,3.97827747631619,7,12,7,1,0
7,24,1,0.1,-0.337735242798203,-0.290957186981324,-1.21137317197816,7,8,3,2,0
8,1,1,0.1,1.74430280251217,-0.81401415689105,2.0130937787369,3,10,7,1,1
8,2,1,0.1,1.95922110775353,-0.222003860970287,0.230273358905221,3,8,3,2,0
8,3,1,0.1,1.11011763950489,-0.81401415689105,12.8121412640823,7,10,3,2,2
8,4,1,0.1,1.51881474455403,-0.81401415689105,-0.912991656464671,7,10,3,2,0
8,5,1,0.1,0.070758622354054,-0.222003860970287,0.869277972928353,3,8,3,1,1
8,6,1,0.1,-0.0490319084362115,1.554027026792,-2.12919946129881,7,12,7,2,0
8,7,1,0.1,1.08193163226012,-0.222003860970287,-0.228731843721108,7,8,7,1,1
8,8,1,0.1,1.17353615580562,-0.222003860970287,-0.643697064134258,3,8,3,2,2
8,9,1,0.1,-1.06020491834228,-0.222003860970287,-1.68995606941837,3,8,7,1,2
8,10,1,0.1,-0.817100605856149,-0.222003860970287,-0.942087609543691,7,8,3,1,0
8,11,1,0.1,-0.891088874873666,-0.222003860970287,-0.643255294262588,3,8,7,1,0
8,12,1,0.1,0.204642156766704,-0.222003860970287,3.20560891002606,7,8,7,1,0
8,13,1,0.1,-0.426019755334988,-0.222003860970287,-3.24610578607905,7,8,3,1,1
8,14,1,0.1,-0.820623856761745,-0.222003860970287,-0.644721478684457,3,12,7,2,2
8,15,1,0.1,-0.915751631212838,-0.81401415689105,0.554170465385102,3,10,7,2,1
8,16,1,0.1,0.704943785361342,-0.222003860970287,3.12392189331048,7,12,7,2,2
8,17,1,0.1,0.641525269060613,3.3300579145543,6.13376835825743,7,10,7,2,1
8,18,1,0.1,-0.993263151135951,1.554027026792,-0.139201934512213,3,12,3,1,2
8,19,1,0.1,-0.140636431981709,-0.222003860970287,0.346813270382941,7,12,3,2,1
8,20,1,0.1,-1.05315841653108,-0.222003860970287,0.387539013592249,3,12,3,1,0
8,21,1,0.1,-0.898135376684858,1.554027026792,-0.852252090997658,7,8,7,1,2
8,22,1,0.1,-0.947460889363202,-0.81401415689105,0.25006068239496,3,10,3,2,1
8,23,1,0.1,-0.95803064207999,-0.81401415689105,-2.15934008053848,7,10,3,1,2
8,24,1,0.1,-0.239287457338398,-0.222003860970287,-1.35840851358932,3,12,7,2,0
9,1,1,0.1,0.260359713264582,-0.375540841706121,0.269104649139743,7,8,7,1,0
9,2,1,0.1,0.872162075787297,0.706016782407506,-0.27325271954536,3,8,7,1,2
9,3,1,0.1,0.0506971058832025,0.706016782407506,-1.20127439696399,3,12,3,2,2
9,4,1,0.1,0.229425885946018,-0.375540841706121,0.098577877985572,7,12,3,2,2
9,5,1,0.1,0.555949618753085,-0.375540841706121,1.3480964027892,7,8,3,1,1
9,6,1,0.1,-0.45455540698668,-0.375540841706121,0.135128353148854,7,8,7,1,2
9,7,1,0.1,0.188180782854599,-0.736060049743996,-4.16753421016816,7,10,7,2,1
9,8,1,0.1,3.27468933086245,-0.375540841706121,1.42847562576394,3,8,7,2,2
9,9,1,0.1,0.0575712897317723,3.95068965474839,-1.72166540408653,3,12,7,1,1
9,10,1,0.1,-0.433932855440971,0.706016782407506,-1.36985116386244,7,12,3,1,0
9,11,1,0.1,1.06463922354725,-0.736060049743996,0.885265292353784,3,10,3,2,0
9,12,1,0.1,-0.884191897522294,-0.375540841706121,-2.59960551127384,7,8,7,1,1
9,13,1,0.1,-0.976993379477987,0.706016782407506,0.434585588139753,3,12,3,1,1
9,14,1,0.1,0.896221719257292,-0.375540841706121,0.877633602354676,3,8,3,1,0
9,15,1,0.1,-0.578290716260937,0.706016782407506,-1.02137692113157,7,8,3,2,1
9,16,1,0.1,-0.949496644083708,-0.375540841706121,-0.781119895386934,3,12,3,2,1
9,17,1,0.1,-0.743271128626613,-0.736060049743996,0.870418468898615,7,10,3,2,0
9,18,1,0.1,-0.935748276386568,0.706016782407506,1.30201871430048,3,12,7,1,0
9,19,1,0.1,0.384095022538839,-0.736060049743996,-1.34266227853258,3,10,7,2,0
9,20,1,0.1,1.22618254398864,-0.375540841706121,0.817723519784264,3,12,3,1,2
9,21,1,0.1,-0.616098727428071,-0.375540841706121,-2.91807645057027,3,8,7,2,1
9,22,1,0.1,-0.66421801436806,-0.375540841706121,-0.145044710879912,7,8,7,2,2
9,23,1,0.1,-1.21071563032936,-0.375540841706121,-2.49510122498935,7,8,3,1,2
9,24,1,0.1,-0.612661635503786,-0.736060049743996,-1.42077930547398,7,10,7,2,0
10,1,1,0.1,0.296138490004323,-0.435642635968827,-0.461482313607979,7,12,3,1,2
10,2,1,0.1,-0.863279046458227,-0.91088914793482,-1.16199284245925,7,10,3,1,0
10,3,1,0.1,-0.850710834680855,0.990096899929152,-1.36257151846652,7,12,7,1,1
10,4,1,0.1,0.726599743379308,-0.435642635968827,1.56700843634857,7,8,7,2,2
10,5,1,0.1,-0.0212088573743149,-0.435642635968827,0.48705651056019,7,12,7,2,1
10,6,1,0.1,1.78232953267854,0.990096899929152,-0.677000577480333,7,12,7,1,2
10,7,1,0.1,0.113899419232432,0.990096899929152,0.668740418344762,3,8,3,1,0
10,8,1,0.1,0.393542131278955,-0.91088914793482,-0.906132478920037,3,10,7,1,2
10,9,1,0.1,-0.341698257697296,2.41583643582713,0.320240163276145,3,10,3,2,0
10,10,1,0.1,-0.401397263639812,-0.91088914793482,-0.836370076272178,7,10,3,2,0
10,11,1,0.1,-0.0777658103724881,0.990096899929152,-0.535758753572568,7,8,7,2,0
10,12,1,0.1,0.73916795515668,-0.435642635968827,1.80004747810229,3,12,7,2,2
10,13,1,0.1,-0.674755869797649,-0.91088914793482,0.327045403756797,7,10,3,1,1
10,14,1,0.1,-0.995245270120631,-0.435642635968827,0.978605761465888,3,8,7,2,1
10,15,1,0.1,2.75008183953617,-0.91088914793482,0.571944056926856,7,10,7,1,0
10,16,1,0.1,0.54750272555176,-0.435642635968827,-0.6755443610715,3,12,3,2,2
10,17,1,0.1,0.849139808208683,-0.435642635968827,0.743883196257444,3,8,3,2,1
10,18,1,0.1,-0.847568781736512,-0.435642635968827,-0.717696751213019,3,12,3,1,2
10,19,1,0.1,-1.33772904105401,0.990096899929152,-1.9138741816271,3,12,7,1,1
10,20,1,0.1,0.054200413289916,2.41583643582713,-0.45253280083217,3,10,7,2,0
10,21,1,0.1,-1.3440131469427,-0.435642635968827,-1.31354465719294,7,12,3,2,1
10,22,1,0.1,1.07536762020138,-0.435642635968827,0.0419775692860409,3,8,7,1,0
10,23,1,0.1,-0.800437987571368,-0.435642635968827,0.925437760743717,3,8,3,1,1
10,24,1,0.1,-0.772159511072281,-0.435642635968827,0.178141387976394,7,8,3,2,2
12,1,1,0.1,1.63379658227562,-0.0687084700658151,4.85816962005382,7,8,7,2,2
12,2,1,0.1,1.03887795843342,-0.0687084700658151,0.955729767329547,3,8,7,1,2
12,3,1,0.1,0.997957629809359,-0.0687084700658151,-0.415194195829803,7,12,3,2,2
12,4,1,0.1,1.58343310089215,-0.0687084700658151,1.32656391437671,3,12,7,2,2
12,5,1,0.1,-0.558588716698391,-0.893210110855586,-0.00436356850564856,3,10,7,2,1
12,6,1,0.1,0.946020289632659,-0.0687084700658151,1.33962931899911,7,8,3,1,0
12,7,1,0.1,1.61018870037712,-0.0687084700658151,0.364444203473508,3,8,3,2,0
12,8,1,0.1,0.340084654237832,-0.0687084700658151,-1.37988619149914,3,8,3,2,1
12,9,1,0.1,0.333789219064899,-0.0687084700658151,1.03096429633046,3,8,7,1,1
12,10,1,0.1,0.920838548940926,-0.893210110855586,1.37854004225732,7,10,3,1,2
12,11,1,0.1,0.90352610221536,2.4047964523035,2.5499587812341,3,12,3,1,1
12,12,1,0.1,-0.234373805292328,2.4047964523035,1.15436445753933,7,12,3,1,1
12,13,1,0.1,-1.11416087070975,-0.0687084700658151,-0.580767840782248,7,8,3,2,1
12,14,1,0.1,-0.324083756506627,-0.0687084700658151,-1.99075320063099,3,12,7,2,0
12,15,1,0.1,-0.621543068427724,-0.0687084700658151,26.1457666310271,7,8,7,2,0
12,16,1,0.1,0.417203735106265,-0.0687084700658151,-0.528312050826271,3,12,3,2,2
12,17,1,0.1,-0.659315679465324,-0.893210110855586,-0.223762606256746,3,10,3,1,2
12,18,1,0.1,-0.846604875860088,-0.893210110855586,-2.50599871327138,3,10,3,1,0
12,19,1,0.1,-1.26997289123985,-0.893210110855586,0.44313647317344,7,10,7,2,1
12,20,1,0.1,-1.03074635466839,-0.893210110855586,-2.14888157915312,3,10,7,1,0
12,21,1,0.1,-0.819849276375122,-0.893210110855586,-1.06782159365622,7,10,7,1,1
12,22,1,0.1,-0.936314827074387,-0.0687084700658151,-0.454031437481199,7,8,7,1,2
12,23,1,0.1,-0.99454760242402,2.4047964523035,0.0773854455952314,7,12,7,1,0
12,24,1,0.1,-1.31561479624362,-0.0687084700658151,-0.261667678108851,7,8,3,2,0
13,1,1,0.1,0.786978041941942,3.07487454701057,0.871883396907925,7,10,7,1,1
13,2,1,0.1,0.495618884396345,-0.229468249776909,-0.725883298025971,3,8,3,1,1
13,3,1,0.1,-0.376146213974209,1.42270314861683,1.06264172641725,3,12,7,1,0
13,4,1,0.1,0.958093737643324,-0.229468249776909,1.0940366523852,3,8,7,2,1
13,5,1,0.1,1.40669434529289,-0.229468249776909,1.9615807454171,7,12,3,1,2
13,6,1,0.1,0.810101784604291,-0.780192049241489,-0.215501104739269,7,10,3,2,2
13,7,1,0.1,1.27951376064997,-0.780192049241489,-0.821956920517008,3,10,3,2,2
13,8,1,0.1,1.39744484822795,1.42270314861683,1.15611447160665,7,12,3,1,1
13,9,1,0.1,0.49793125866258,1.42270314861683,1.81400982727249,3,12,7,2,2
13,10,1,0.1,0.523367375591164,-0.780192049241489,10.4372379525689,3,10,7,2,0
13,11,1,0.1,0.375375422552131,-0.229468249776909,0.299488478568088,7,12,3,1,0
13,12,1,0.1,1.19164353853305,-0.229468249776909,1.09684596806042,7,12,7,2,2
13,13,1,0.1,0.363813551220956,-0.229468249776909,1.05163908058306,3,8,3,2,0
13,14,1,0.1,-0.850182938552362,-0.780192049241489,-1.14763413517665,3,10,3,2,1
13,15,1,0.1,-1.11379360490314,-0.229468249776909,-0.618985221328895,3,8,3,1,2
13,16,1,0.1,0.449371399071647,-0.780192049241489,1.24856981721523,7,10,7,1,2
13,17,1,0.1,0.0886410135390041,-0.229468249776909,0.582269162420874,7,12,3,2,1
13,18,1,0.1,-1.7011366685268,-0.780192049241489,-0.423988010999785,3,10,3,1,0
13,19,1,0.1,-0.998174891591396,-0.229468249776909,-0.256171704293877,7,8,7,1,0
13,20,1,0.1,-0.713752856844504,1.42270314861683,0.613412079995674,3,12,7,1,1
13,21,1,0.1,-1.05367187398103,-0.780192049241489,-0.385787635524654,3,10,7,1,2
13,22,1,0.1,-1.33809390872792,-0.229468249776909,-1.27139826628697,7,12,7,2,1
13,23,1,0.1,-1.4490878735072,-0.780192049241489,-1.0191684949191,7,10,7,2,0
13,24,1,0.1,-1.03054813131868,-0.229468249776909,0.488798849392511,7,8,3,2,0
14,2,1,0.1,-0.315219554572394,-0.268182305786454,-2.23236740378049,3,8,7,1,2
14,3,1,0.1,1.56452084710522,1.50182091240414,17.456501282325,7,12,7,2,2
14,4,1,0.1,0.895953384652873,-0.858183378516652,0.098720788412904,7,10,3,1,1
14,10,1,0.1,-0.765083789141779,1.50182091240414,3.71294260186082,3,12,3,1,2
14,11,1,0.1,-0.994860598183372,-0.268182305786454,5.82846740421969,7,8,7,2,1
14,16,1,0.1,-0.456407714344939,-0.268182305786454,5.84106628751476,7,12,7,1,1
14,17,1,0.1,-0.665421558714099,-0.858183378516652,1.5515257314321,7,10,7,2,0
14,19,1,0.1,0.513914834680103,-0.268182305786454,1.49381679367553,7,8,3,2,2
14,20,1,0.1,-0.986555412314399,1.50182091240414,7.97101249040984,3,12,3,1,1
14,22,1,0.1,1.71262999510191,-0.858183378516652,0.949010218179808,7,10,3,1,0
14,24,1,0.1,-0.503470434269121,-0.858183378516652,4.31057373376833,7,10,7,1,2
15,1,1,0.1,1.08278858340077,-0.715491385636572,-1.3659768982198,3,8,7,2,2
15,2,1,0.1,0.64626485667867,0.946295058422562,0.648694781292591,3,10,7,1,0
15,3,1,0.1,2.21932333135292,0.115401836392995,1.93033307076643,3,12,3,2,0
15,4,1,0.1,1.31874735460191,0.115401836392995,-1.17596315520715,3,12,3,1,0
15,5,1,0.1,0.249067591823422,0.115401836392995,0.00982213224436679,7,12,7,1,1
15,6,1,0.1,2.44741681018068,-0.99245579297976,3.64737388373161,3,10,3,1,2
15,7,1,0.1,-0.671171615861012,-0.715491385636572,1.60579266793957,7,8,3,1,0
15,8,1,0.1,-0.710498077727868,2.6080815024817,0.973429854703454,3,12,7,1,1
15,9,1,0.1,1.01593359822712,-0.715491385636572,-1.27998490747196,3,8,7,1,2
15,10,1,0.1,-0.226782596765537,0.946295058422562,-0.448843972464611,7,10,3,2,0
15,11,1,0.1,0.103559682916055,-0.715491385636572,-0.0225303676282174,3,8,7,2,0
15,12,1,0.1,0.426036670224275,-0.715491385636572,-0.434617427214262,7,8,3,1,2
15,13,1,0.1,-0.0340829336179419,-0.715491385636572,1.60408007828852,7,8,7,1,2
15,14,1,0.1,-0.970052726049118,0.115401836392995,-2.77504263587715,3,12,3,2,2
15,15,1,0.1,-1.1116279887698,0.115401836392995,-2.57393535736385,7,12,3,2,2
15,16,1,0.1,-0.66330632348764,0.115401836392995,0.842693608280204,3,12,7,2,1
15,17,1,0.1,-0.541394291700386,2.6080815024817,-3.54819791104273,3,12,3,1,1
15,18,1,0.1,-1.02117712647603,0.115401836392995,-5.11087551298934,7,12,7,2,2
15,19,1,0.1,-0.266109058632393,-0.715491385636572,1.22636379675906,7,8,7,2,0
15,20,1,0.1,-0.596451338313985,-0.715491385636572,-2.73951430001114,7,8,3,2,1
15,21,1,0.1,-0.616114569247413,-0.715491385636572,1.87637286788922,3,8,3,2,1
15,22,1,0.1,-0.293637581939192,0.946295058422562,-0.570389261437501,7,10,7,2,1
15,23,1,0.1,-0.793083647648266,-0.715491385636572,-2.16477208475517,7,8,3,1,1
15,24,1,0.1,-0.993648603169232,-0.715491385636572,-4.14678003667936,7,8,7,1,0
16,1,1,0.1,-0.0767076766725516,-0.300796416641907,3.04856500549922,3,12,7,2,2
16,2,1,0.1,-0.0369333258053026,-0.300796416641907,0.273642266940213,3,8,7,1,2
16,3,1,0.1,1.44202314929934,-0.300796416641907,1.39223864091221,7,12,7,2,2
16,4,1,0.1,-0.737448933936647,1.76180758318831,1.56927995883482,7,10,3,1,1
16,5,1,0.1,-0.0734607908874701,-0.300796416641907,1.19309861801623,3,12,3,2,1
16,6,1,0.1,0.620561045673711,-0.300796416641907,0.654692947052997,7,8,3,2,1
16,7,1,0.1,-0.0109582395246502,-0.300796416641907,1.24253405448413,7,8,3,2,0
16,8,1,0.1,-0.339705425264157,-0.644563749946943,-0.388221543030012,3,10,7,2,1
16,9,1,0.1,-0.334023375140264,-0.300796416641907,-0.544960330567058,3,8,3,1,0
16,10,1,0.1,-1.01181078277604,0.730505583273202,0.725563326819042,3,12,3,1,2
16,11,1,0.1,2.18961860131437,-0.300796416641907,1.20518932150557,7,8,7,2,1
16,12,1,0.1,-0.677381546912638,-0.644563749946943,1.35345194260745,7,10,3,1,2
16,13,1,0.1,0.749624755630703,-0.300796416641907,2.2839521446321,3,8,7,2,0
16,14,1,0.1,-0.898981501744454,0.730505583273202,-1.16429711263847,3,12,3,2,2
16,15,1,0.1,-0.22038237266241,-0.644563749946943,1.19680723697561,3,10,7,1,0
16,16,1,0.1,0.573481201790029,3.82441158301853,0.32224355025115,7,12,7,1,1
16,17,1,0.1,0.221194094108681,-0.644563749946943,1.01579763432135,7,10,7,2,0
16,18,1,0.1,-0.839725836166716,-0.300796416641907,4.51155907246781,7,12,7,1,0
16,19,1,0.1,-0.0702139051023885,-0.300796416641907,0.993502488651626,7,8,3,2,2
16,20,1,0.1,-0.574292923236299,0.730505583273202,0.665702848828339,3,12,3,1,1
16,21,1,0.1,2.82925510097544,-0.300796416641907,1.5445172660843,3,12,3,2,0
16,22,1,0.1,-0.585657023484085,-0.644563749946943,-0.0437196798844324,7,10,3,1,0
16,23,1,0.1,-1.0183045543462,-0.300796416641907,0.616669516430114,3,8,7,1,1
16,24,1,0.1,-1.11976973513,-0.644563749946943,0.367973949016558,7,10,7,1,2
17,1,1,0.1,1.15396500324483,-0.25993450567827,1.88496027917801,3,8,7,2,1
17,2,1,0.1,2.26490879391686,1.07687152352426,1.60971336685955,7,12,7,2,1
17,3,1,0.1,0.419764882326164,-0.25993450567827,1.94128583559234,3,8,3,2,2
17,4,1,0.1,1.66186175939697,-0.25993450567827,1.99923102542668,7,8,7,1,1
17,5,1,0.1,-0.633317252581696,-0.705536515412446,0.746429725713492,7,10,3,1,2
17,6,1,0.1,0.574062631030612,2.41367755272679,0.0622522768096042,7,10,3,1,1
17,7,1,0.1,-0.818474551027034,-0.705536515412446,-1.35658934576675,3,10,3,1,2
17,8,1,0.1,-0.94705600828074,-0.705536515412446,-0.0218327270542984,3,10,7,2,0
17,9,1,0.1,-1.19264659163532,-0.25993450567827,-1.37229235607921,7,8,3,2,0
17,10,1,0.1,1.63228802422862,-0.25993450567827,2.33621080786797,7,8,3,2,1
17,11,1,0.1,-0.875050392218665,-0.705536515412446,1.79911249400159,3,10,3,2,0
17,12,1,0.1,-0.68860727920079,-0.25993450567827,0.509217952575158,7,8,7,1,2
17,13,1,0.1,0.620351955641947,-0.705536515412446,0.539373730503339,3,10,7,1,1
17,14,1,0.1,-0.76318452440794,-0.705536515412446,0.918561278933936,7,10,3,2,2
17,15,1,0.1,-0.148565158735221,-0.25993450567827,-0.341484283213882,3,12,3,1,1
17,16,1,0.1,-0.692464722918401,-0.705536515412446,-0.459058880909959,3,10,3,2,1
17,17,1,0.1,-0.00583974118360595,-0.25993450567827,0.770819872028404,7,8,7,2,0
17,18,1,0.1,-0.299005463722058,2.41367755272679,0.190273989779377,7,10,3,1,0
17,19,1,0.1,1.0523856520144,-0.25993450567827,1.13273483139239,3,12,7,1,2
17,20,1,0.1,-0.439159252128598,-0.25993450567827,1.72595428983889,7,8,7,1,0
17,21,1,0.1,-0.884051094226424,2.41367755272679,-0.361209802023972,3,10,3,1,0
17,22,1,0.1,0.826082287247878,-0.25993450567827,0.723248884135708,7,8,7,2,2
17,23,1,0.1,-0.929054604265221,-0.25993450567827,-0.565245195633711,3,12,7,1,0
17,24,1,0.1,-0.889194352516572,-0.25993450567827,-0.655457867215258,3,12,7,2,2
18,1,1,0.1,2.06919839577808,0.295163026345123,2.14305928724722,7,12,3,1,1
18,2,1,0.1,0.199849867580136,-0.885489079035371,-0.515086186942868,3,10,7,1,1
18,3,1,0.1,-0.0765580771875939,-0.885489079035371,0.17923868421849,7,10,3,2,2
18,4,1,0.1,1.84232019833867,0.295163026345123,0.796609119019578,3,8,7,1,2
18,5,1,0.1,0.599283313776277,3.83711934248661,2.386900731019,3,12,3,1,1
18,6,1,0.1,0.985934889694142,0.295163026345123,0.6375578287734,3,12,3,2,0
18,7,1,0.1,0.0256968850386183,0.295163026345123,1.86520917374216,7,8,7,1,1
18,8,1,0.1,-0.599017024812147,0.295163026345123,2.43803913365081,7,12,3,1,2
18,9,1,0.1,-0.848263495238539,0.295163026345123,-0.182618173836824,3,8,3,1,0
18,10,1,0.1,-0.490371127446796,-0.885489079035371,3.52007745543605,7,10,3,2,1
18,11,1,0.1,-0.298643073272648,-0.885489079035371,3.84915991351273,3,10,7,2,1
18,12,1,0.1,0.695147340863351,0.295163026345123,-0.0822057496508199,7,8,3,2,0
18,13,1,0.1,0.01930594989948,-0.885489079035371,1.33531798556596,3,10,3,2,2
18,14,1,0.1,0.271747887895441,-0.885489079035371,0.273088968783929,7,10,7,2,1
18,15,1,0.1,-1.00004820479307,0.295163026345123,1.47701455591839,7,12,7,2,0
18,16,1,0.1,-1.03999154941269,-0.885489079035371,2.14452132919993,3,10,3,2,1
18,17,1,0.1,2.36477914596322,-0.885489079035371,2.42250876987057,7,10,7,2,2
18,18,1,0.1,-0.229940520526912,0.295163026345123,1.07805608175306,3,12,7,2,2
18,19,1,0.1,-0.522325803142488,0.295163026345123,4.63439108723879,7,8,7,1,0
18,20,1,0.1,-0.43924364633369,0.295163026345123,0.72572618945082,3,8,3,1,2
18,21,1,0.1,-1.18858079139765,0.295163026345123,1.23624595019698,3,8,7,1,0
18,22,1,0.1,-1.193373992752,0.295163026345123,0.544524575855488,3,8,7,2,0
18,23,1,0.1,-0.189997175907298,0.295163026345123,0.0917715610070805,7,8,3,1,0
18,24,1,0.1,-0.956909392603889,-0.885489079035371,-0.231057294698563,7,10,7,1,2
19,1,1,0.1,1.06182546496613,-0.978945010372561,1.50433430229509,3,10,7,2,2
19,2,1,0.1,-0.215589337084942,1.6315750172876,-0.295415894137397,7,12,7,2,0
19,3,1,0.1,2.63505186781269,-0.326315003457521,0.464408268361353,7,12,7,2,1
19,4,1,0.1,2.63300472870684,-0.326315003457521,0.44612259280513,3,12,3,2,0
19,5,1,0.1,-0.370148339576699,1.6315750172876,-0.675091949381817,3,12,7,1,1
19,6,1,0.1,0.0239259382996345,-0.326315003457521,0.965727508974052,3,12,3,1,0
19,7,1,0.1,0.334067512836073,-0.326315003457521,-0.258101477587519,7,8,3,1,1
19,8,1,0.1,-0.673124927242658,1.6315750172876,0.334430360847436,7,12,3,1,0
19,9,1,0.1,-0.332276266118454,-0.978945010372561,4.76138899153606,3,10,3,2,2
19,10,1,0.1,-0.217636476190793,-0.978945010372561,3.19782935302773,7,10,3,2,2
19,11,1,0.1,1.39755627832571,-0.326315003457521,1.50721897169906,7,8,7,1,2
19,12,1,0.1,0.455872289634213,-0.326315003457521,1.10857854096257,7,12,3,1,2
19,13,1,0.1,-0.0241818306878659,-0.326315003457521,0.5469066895194,3,8,3,1,2
19,14,1,0.1,-0.201259363343984,-0.326315003457521,6.81644418056248,3,8,3,1,1
19,15,1,0.1,-0.686431331430691,1.6315750172876,0.27545790500538,3,12,7,1,0
19,16,1,0.1,-0.707926292042127,-0.326315003457521,0.0147751755884503,7,8,3,2,1
19,17,1,0.1,-0.729421252653563,-0.978945010372561,-0.995177971524258,7,10,7,1,0
19,18,1,0.1,-0.517542355197976,-0.326315003457521,-1.40580118000986,3,12,7,2,1
19,19,1,0.1,-0.954606554297182,1.6315750172876,5.8611290049236,7,12,7,1,1
19,20,1,0.1,-0.0159932742644616,-0.978945010372561,1.35862490895336,7,10,7,2,2
19,21,1,0.1,-0.869650281404362,-0.326315003457521,-0.141784632100476,7,12,3,2,0
19,22,1,0.1,-0.54415516357404,-0.326315003457521,0.106785736790218,3,12,7,2,0
19,23,1,0.1,-0.575885819714732,1.6315750172876,-0.878749250278912,3,12,7,1,2
19,24,1,0.1,-0.905475215756756,-0.978945010372561,4.04461833774341,3,10,3,2,1
20,1,1,0.1,0.0920476412209141,-0.599979131523567,-1.11117906851737,7,10,3,1,2
20,2,1,0.1,1.42930688743486,-0.279990261377665,3.89725230107605,3,12,3,1,2
20,3,1,0.1,-0.670989819035713,-0.279990261377665,-0.461039136938116,3,12,3,2,0
20,4,1,0.1,0.589632477021451,-0.599979131523567,2.83569579654432,3,10,7,1,2
20,5,1,0.1,0.771784068698434,1.63994295949775,1.31622556464554,7,10,3,1,0
20,6,1,0.1,0.582968394399123,-0.599979131523567,1.99262970078094,3,10,7,1,1
20,7,1,0.1,0.0187427323752992,1.63994295949775,0.849228225819625,3,10,7,1,0
20,8,1,0.1,1.27270094581013,0.679976349060042,0.593941208245507,7,12,3,1,1
20,9,1,0.1,0.30529828513543,-0.599979131523567,5.31360662413547,3,10,3,1,1
20,10,1,0.1,2.72991367922599,-0.279990261377665,3.78468655350892,3,12,3,2,2
20,11,1,0.1,-0.673211179909823,-0.279990261377665,0.187684454470593,3,8,3,1,0
20,12,1,0.1,0.100933084717352,-0.279990261377665,-1.66090323396849,3,8,3,2,1
20,13,1,0.1,0.648498540185354,-0.599979131523567,-0.438438951174612,7,10,7,1,0
20,14,1,0.1,0.485228515938303,-0.279990261377665,0.331739671224989,3,8,7,2,1
20,15,1,0.1,0.785112233943091,-0.599979131523567,0.727384407570969,7,10,3,2,1
20,16,1,0.1,-1.04639980676023,3.55987618037316,-1.79167162958513,7,12,7,1,1
20,17,1,0.1,-1.11637267429468,0.679976349060042,-3.54491141669148,7,12,7,2,1
20,18,1,0.1,-0.887572504261393,-0.279990261377665,-1.18934127126148,7,12,3,2,2
20,19,1,0.1,-0.812046234541669,-0.279990261377665,-4.17525463974197,7,12,7,1,2
20,20,1,0.1,-1.06639205462721,-0.279990261377665,-2.2006144017844,7,12,3,2,0
20,21,1,0.1,-1.04862116763433,-0.599979131523567,3.28464321204564,7,10,7,2,2
20,22,1,0.1,-1.15635717002865,-0.279990261377665,-7.58843851876051,3,8,7,2,0
20,23,1,0.1,-0.492170268669895,-0.599979131523567,-0.815460242257426,3,10,7,2,2
20,24,1,0.1,-0.842034606342148,-0.599979131523567,-1.18697310572097,7,10,7,2,0
21,1,1,0.1,1.48226186016653,-0.435494170355693,-2.11796023207542,3,12,7,2,2
21,2,1,0.1,1.35116110599867,-0.435494170355693,0.135014472329955,3,8,7,1,2
21,3,1,0.1,0.593690081917666,-0.435494170355693,-2.27959587504021,7,12,7,2,2
21,4,1,0.1,1.70367646720559,2.17747085177846,2.21175842605394,7,10,3,1,1
21,5,1,0.1,1.64249611526059,-0.435494170355693,0.47316139538596,3,12,3,2,1
21,6,1,0.1,1.73280996813178,-0.435494170355693,-0.614678736348763,7,8,3,2,1
21,7,1,0.1,-0.830938113373136,-0.435494170355693,-2.48891595838021,7,8,3,2,0
21,8,1,0.1,-0.868811664577186,2.17747085177846,-4.44336381388466,3,10,7,2,1
21,9,1,0.1,0.748097636826485,-0.435494170355693,-1.54332489542197,3,8,3,1,0
21,10,1,0.1,-0.0122867373471331,-0.435494170355693,-0.794714867936814,3,12,3,1,2
21,11,1,0.1,0.0314135140421553,-0.435494170355693,-0.486756495608248,7,8,7,2,1
21,12,1,0.1,-0.428895800591682,-0.870988340711385,1.79401724059897,7,10,3,1,2
21,13,1,0.1,-0.297795046423817,-0.435494170355693,3.28039554297921,3,8,7,2,0
21,14,1,0.1,-0.70275070929789,-0.435494170355693,-4.24369944554469,3,12,3,2,2
21,15,1,0.1,-0.679443908556936,-0.870988340711385,3.58722237376674,3,10,7,1,0
21,16,1,0.1,-0.423069100406444,0.870988340711385,-5.97758322484768,7,12,7,1,1
21,17,1,0.1,-0.676530558464317,-0.870988340711385,5.13908947596519,7,10,7,2,0
21,18,1,0.1,0.520856329602185,-0.435494170355693,-1.48929718883612,7,12,7,1,0
21,19,1,0.1,-1.04943937031958,0.870988340711385,-0.865335539948504,7,8,3,2,2
21,21,1,0.1,-1.08148622133839,0.870988340711385,1.13249380293537,3,12,3,2,0
21,22,1,0.1,-1.11061972226458,2.17747085177846,-2.33881598745582,7,10,3,1,0
21,23,1,0.1,-0.714404109668367,-0.435494170355693,-3.49676440407652,3,8,7,1,1
21,24,1,0.1,-0.929992016522189,-0.870988340711385,2.02170910230935,7,10,7,1,2
22,1,1,0.1,0.0951742196796061,-0.419322312840655,5.44637489748483,7,8,7,1,1
22,2,1,0.1,0.408982923028798,1.0273396664596,-0.156270881123795,3,12,7,2,2
22,3,1,0.1,3.29831915508538,1.0273396664596,1.10510169175414,3,12,3,1,0
22,4,1,0.1,-0.28751932099014,-0.419322312840655,-0.977779186613087,3,8,3,1,2
22,5,1,0.1,0.183193734033648,-0.419322312840655,3.22110128295854,7,12,3,1,1
22,6,1,0.1,-0.670212861659885,-0.419322312840655,0.889337105620576,7,8,7,2,2
22,7,1,0.1,0.711310820157897,-0.901542972607407,1.13027530064452,7,10,3,2,0
22,8,1,0.1,-0.773540117640717,-0.419322312840655,0.384673603089125,7,12,3,2,1
22,9,1,0.1,-0.624289636779516,1.0273396664596,-2.93943874317418,7,12,7,1,2
22,10,1,0.1,1.23560097087545,2.47400164575986,1.28078417404089,3,10,3,1,1
22,11,1,0.1,0.0377701885791443,-0.419322312840655,-2.15374173267972,7,8,3,1,0
22,12,1,0.1,-0.0502493257748972,-0.901542972607407,0.111369654535994,3,10,3,2,0
22,13,1,0.1,0.477867760349352,-0.419322312840655,-1.92817282558523,7,8,7,1,0
22,14,1,0.1,-1.19067607697074,-0.419322312840655,-4.3143958354932,3,8,3,2,2
22,15,1,0.1,1.12844677948792,-0.419322312840655,-0.582530478610488,3,12,7,2,0
22,16,1,0.1,-0.448250608071433,2.47400164575986,-0.523570765806398,7,10,7,2,1
22,17,1,0.1,-1.08734882098991,-0.419322312840655,-3.82900564027003,7,8,3,1,2
22,18,1,0.1,0.864388236425795,1.0273396664596,0.904120181882383,3,12,3,2,1
22,19,1,0.1,-0.635770442999608,-0.901542972607407,1.1467952085879,3,10,7,1,2
22,21,1,0.1,-0.727616892760347,-0.901542972607407,0.38805750140519,7,10,7,2,0
22,22,1,0.1,-0.90365592146843,-0.419322312840655,-3.0015411672338,7,8,3,2,2
22,23,1,0.1,-0.597501088932634,-0.419322312840655,-1.77429922843815,3,12,7,2,1
22,24,1,0.1,-0.444423672664735,-0.419322312840655,1.71028422347516,3,8,7,1,1
