Subject,Trial,Gaussian_Centroid,Standard_Deviation,Reaction_Time,Secondary_Task_Acc,Net_Cognitive_Load,Speed,Number_of_Fish,Turbidity,CameraDistance,Fish_Type
1,1,1,0.1,2.28434771725881,-0.255609437163093,-0.206528793963031,7,8,3,1,0
1,3,1,0.1,-0.171026510066587,-0.843511142638205,-0.223469781219847,3,10,3,1,1
1,4,1,0.1,1.60070853734751,1.50809567926225,-0.0224104596893781,3,12,3,1,2
1,5,1,0.1,-0.385782273389508,-0.255609437163093,0.722189745165225,7,12,3,1,2
1,6,1,0.1,0.0186744142019933,-0.255609437163093,-0.180629000192856,7,12,3,2,0
1,7,1,0.1,-0.0672278911271752,-0.255609437163093,0.0687368477504637,7,12,7,2,0
1,8,1,0.1,-0.471684578718677,-0.255609437163093,-0.3329928236423,3,12,3,2,0
1,9,1,0.1,-0.428733426054093,-0.255609437163093,0.12428712679378,3,8,7,2,0
1,10,1,0.1,-0.740129282872328,-0.255609437163093,1.19906774898226,7,8,3,2,2
1,11,1,0.1,-0.840348639089692,-0.843511142638205,0.154992391754961,7,10,7,1,1
1,12,1,0.1,-0.718653706540036,-0.255609437163093,0.828040514110013,7,8,7,1,0
1,13,1,0.1,-0.16386798462249,1.50809567926225,0.273574151887048,3,12,7,1,0
1,14,1,0.1,-0.919092418974763,-0.255609437163093,-0.416250788807834,7,8,3,1,1
1,15,1,0.1,1.10677028170479,-0.843511142638205,0.151653712018567,3,10,7,1,2
1,16,1,0.1,0.240588702969012,-0.843511142638205,0.54293135919396,3,10,7,2,2
1,17,1,0.1,2.69954219301646,1.50809567926225,0.424546411152926,7,12,7,1,2
1,18,1,0.1,0.430289627237592,-0.255609437163093,0.0431873576835494,7,8,7,2,1
1,19,1,0.1,-0.679281816597501,-0.255609437163093,0.868595824262002,7,8,3,2,1
1,20,1,0.1,-0.546849095881699,-0.843511142638205,0.428231030256275,7,10,7,2,2
1,21,1,0.1,-0.443050476942287,-0.255609437163093,0.264149350398336,3,8,3,2,2
1,22,1,0.1,-0.29987996806034,-0.255609437163093,0.371931576553073,3,8,3,2,1
1,23,1,0.1,-0.589800248546284,3.27180079568758,0.254398752168681,3,10,3,1,0
1,24,1,0.1,-0.915513156252714,-0.255609437163093,0.468755090630537,3,8,7,1,1
2,1,1,0.1,0.464088670255891,-0.420558293861036,-0.0370119697518402,7,12,3,1,2
2,2,1,0.1,1.02587331658995,1.53300281310635,0.0500156896959107,7,10,3,1,0
2,3,1,0.1,0.830743635510334,3.48656392007375,-0.00979564048740678,7,12,7,1,1
2,4,1,0.1,1.23673926227276,-0.420558293861036,0.0374535475280951,7,8,7,2,2
2,5,1,0.1,-0.0221619059828328,-0.420558293861036,-0.24411943289115,7,12,7,2,1
2,6,1,0.1,0.674954615938704,0.556222259622659,-0.0153673987555289,7,12,7,1,2
2,7,1,0.1,1.43029531689206,-0.420558293861036,0.44072945530128,3,8,3,1,0
2,8,1,0.1,1.83943819657513,-0.746151811688934,0.123497574488128,3,10,7,1,2
2,9,1,0.1,0.0816974403982539,-0.746151811688934,-0.265050499843406,3,10,3,2,0
2,10,1,0.1,-0.402979509380151,-0.746151811688934,0.0622245038773942,7,10,3,2,0
2,11,1,0.1,-0.0945487231575296,-0.420558293861036,0.0249812105060504,7,8,7,2,0
2,12,1,0.1,0.169820522176146,0.556222259622659,-0.0954765274268433,3,12,7,2,2
2,13,1,0.1,-0.989942179079322,1.53300281310635,0.0343876473112799,7,10,3,1,1
2,14,1,0.1,1.68050192408286,-0.420558293861036,0.232610583926984,3,8,7,2,1
2,15,1,0.1,-1.0607553697937,-0.746151811688934,0.0571732909472584,7,10,7,1,0
2,16,1,0.1,-0.612271828602644,-0.420558293861036,-0.166770123446874,3,12,3,2,2
2,17,1,0.1,0.475104055478128,0.556222259622659,0.138841737340776,3,8,3,2,1
2,18,1,0.1,-0.115005867141683,-0.420558293861036,-0.255190008090421,3,12,3,1,2
2,19,1,0.1,-0.706689416221813,0.556222259622659,-0.106311158829616,3,12,7,1,1
2,20,1,0.1,-1.42268945566718,-0.746151811688934,-0.538377715901673,3,10,7,2,0
2,21,1,0.1,-0.635876225507436,-0.420558293861036,-0.137091521084092,7,12,3,2,1
2,22,1,0.1,-1.38649604707984,-0.420558293861036,0.244964801432436,3,8,7,1,0
2,23,1,0.1,-1.20080812476213,-0.420558293861036,0.238573362570814,3,8,3,1,1
2,24,1,0.1,-1.25903230379396,-0.420558293861036,0.261548359779606,7,8,3,2,2
3,1,1,0.1,3.2587883326523,-0.313103974450949,-0.549799731545328,7,8,3,2,0
3,2,1,0.1,0.338950201642425,1.29714503701107,1.20563268173279,3,8,3,1,0
3,3,1,0.1,0.773530760676452,-0.313103974450949,-0.486428262294863,3,8,7,2,2
3,4,1,0.1,-0.231436782089736,1.29714503701107,3.50688379532282,7,8,3,1,1
3,5,1,0.1,-0.557372201365257,-0.313103974450949,-0.492659821751063,7,8,7,1,1
3,6,1,0.1,-0.163533569740669,2.90739404847309,0.896399945695867,7,10,7,2,1
3,7,1,0.1,-0.38761417049259,-0.849853644938288,2.40696371780864,7,10,3,1,2
3,8,1,0.1,-0.28575935196899,1.29714503701107,0.524867412366863,7,8,7,2,0
3,9,1,0.1,-0.143162606035949,1.29714503701107,0.752468241603933,3,12,7,1,1
3,10,1,0.1,-0.808614087056804,-0.849853644938288,1.85152897566438,7,10,3,2,2
3,11,1,0.1,-0.964791475459657,-0.849853644938288,0.381732141316773,3,10,7,1,0
3,12,1,0.1,-0.849356014466244,1.29714503701107,0.907950475204861,3,12,3,1,1
3,13,1,0.1,-0.50983995272091,-0.313103974450949,-0.959971999012486,3,12,7,2,0
3,14,1,0.1,0.522288874984905,-0.849853644938288,0.144393833962077,3,10,3,2,2
3,15,1,0.1,-0.910468905580404,-0.849853644938288,0.0471129625039654,7,10,3,2,1
3,16,1,0.1,-0.217856139619923,-0.313103974450949,-0.126910632521981,3,8,3,1,2
3,17,1,0.1,-0.231436782089736,-0.313103974450949,0.61969481353975,7,8,3,1,0
3,18,1,0.1,0.0605470310112509,-0.313103974450949,-0.980726986296924,3,8,3,2,0
3,19,1,0.1,0.0130147823669042,-0.313103974450949,0.696174691492984,3,8,7,1,2
3,20,1,0.1,0.705627548327385,-0.313103974450949,1.10129343805641,7,12,7,2,2
3,21,1,0.1,0.352530844112238,-0.313103974450949,-0.605417083239317,3,12,7,2,1
3,22,1,0.1,2.17233693506723,-0.849853644938288,-0.361572827570072,3,10,3,2,1
3,23,1,0.1,-1.10059790015779,-0.849853644938288,1.58142977699113,7,10,7,1,2
3,24,1,0.1,-0.83577537199643,-0.313103974450949,-0.583213740968404,7,12,7,1,0
4,1,1,0.1,-0.00888346395525166,-0.0591726335413945,-0.436854730260306,3,8,7,2,1
4,2,1,0.1,2.30747976237662,-0.0591726335413945,-0.279702295712195,7,12,7,2,1
4,3,1,0.1,1.46799241860534,-0.0591726335413945,0.195332428231445,3,8,3,2,2
4,4,1,0.1,0.81505781789434,-0.0591726335413945,-0.0837875856816749,7,8,7,1,1
4,5,1,0.1,0.370884620131757,-0.68048528572603,0.106652387603069,7,10,3,1,2
4,6,1,0.1,0.0954972375189553,3.66870327956642,0.43404493514063,7,10,3,1,1
4,7,1,0.1,-0.144356289272839,-0.68048528572603,0.42959352160042,3,10,3,1,2
4,9,1,0.1,-1.33029872729894,-0.0591726335413945,-0.25985427338489,7,8,3,2,0
4,10,1,0.1,-1.01271489089869,-0.0591726335413945,0.165812715098815,7,8,3,2,1
4,11,1,0.1,-0.424185403863267,-0.68048528572603,-0.446850931435053,3,10,3,2,0
4,12,1,0.1,0.21320313492604,-0.0591726335413945,0.213732722274168,7,8,7,1,2
4,13,1,0.1,-0.684026724554378,-0.68048528572603,-0.20820106669122,3,10,7,1,1
4,14,1,0.1,-0.746210972241139,-0.68048528572603,0.13540514319832,7,10,3,2,2
4,15,1,0.1,0.470823589628338,1.80476532301251,-0.114192098837389,3,12,3,1,1
4,16,1,0.1,0.262062186679924,-0.68048528572603,-0.57853441524505,3,10,3,2,1
4,17,1,0.1,0.981622767055308,-0.0591726335413945,-0.128084399882336,7,8,7,2,0
4,19,1,0.1,-1.1348625202834,-0.0591726335413945,-0.286233982125039,3,12,7,1,2
4,21,1,0.1,1.17927984005966,-0.68048528572603,-0.0905146645674556,3,10,3,1,0
4,22,1,0.1,-1.33029872729894,-0.0591726335413945,-0.231144479727686,7,8,7,2,2
4,23,1,0.1,0.0444173197762583,-0.0591726335413945,-0.0969755208153793,3,12,7,1,0
4,24,1,0.1,-1.3924829749857,-0.0591726335413945,0.967467193323796,3,12,7,2,2
5,1,1,0.1,2.16756348179368,-0.395008187929654,-0.103413660730381,7,8,7,2,2
5,2,1,0.1,1.08347567432217,-0.395008187929654,0.0850309221178507,3,8,7,1,2
5,3,1,0.1,0.18792487684571,-0.395008187929654,-0.594351244306574,7,12,3,2,2
5,4,1,0.1,-0.532555839921067,0.371772412169085,-0.578122477015893,3,12,7,2,2
5,5,1,0.1,1.28547961360258,-0.6506017212959,0.265807445818332,3,10,7,2,1
5,7,1,0.1,0.807403623972285,-0.395008187929654,0.396498644085507,3,8,3,2,0
5,9,1,0.1,0.120590230418908,-0.395008187929654,-0.732922750447159,3,8,7,1,1
5,10,1,0.1,-0.956764112409917,-0.6506017212959,-1.55068767412522,7,10,3,1,2
5,11,1,0.1,2.44363553214356,2.6721142124653,-0.019405715848498,3,12,3,1,1
5,12,1,0.1,0.369728422198074,2.6721142124653,1.17601422287236,7,12,3,1,1
5,13,1,0.1,0.107123301133548,-0.395008187929654,0.00752920149728162,7,8,3,2,1
5,14,1,0.1,-0.24301686028582,-0.395008187929654,0.0970261078139507,3,12,7,2,0
5,15,1,0.1,-0.357485759211383,-0.395008187929654,-0.000338379837561208,7,8,7,2,0
5,16,1,0.1,-1.07123301133548,-0.395008187929654,1.92196481623305,3,12,3,2,2
5,17,1,0.1,-1.165501516333,-0.6506017212959,-0.820206343420049,3,10,3,1,2
5,18,1,0.1,-0.559489698491788,1.13855301226782,0.0676256265046803,3,10,3,1,0
5,19,1,0.1,-0.344018829926022,-0.6506017212959,1.03061643041908,7,10,7,2,1
5,20,1,0.1,-0.707625920630751,-0.6506017212959,0.37425857542674,3,10,7,1,0
5,21,1,0.1,-0.552756233849107,1.13855301226782,0.0882761932190744,7,10,7,1,1
5,22,1,0.1,-0.822094819556314,-0.395008187929654,-0.227660851455469,7,8,7,1,2
5,23,1,0.1,-0.465221193494265,-0.395008187929654,0.555661492616064,7,12,7,1,0
5,24,1,0.1,-0.795160960985593,-0.395008187929654,-1.00081128077359,7,8,3,2,0
6,1,1,0.1,0.233148016104067,-0.401593372583645,-0.219322595010046,3,8,7,2,1
6,2,1,0.1,2.25361710552058,0.912712210417374,-0.292787050157302,7,12,3,2,1
6,3,1,0.1,0.111390490191631,0.912712210417374,-0.129634310212994,3,8,7,1,0
6,4,1,0.1,0.813702016469159,-0.401593372583645,-0.241221517720535,3,8,7,2,0
6,5,1,0.1,-0.336818373312119,-0.839695233583985,-0.068160415676044,7,10,7,2,2
6,6,1,0.1,2.91004898435284,2.22701779341839,-0.434608653408878,7,10,3,1,1
6,7,1,0.1,-0.0915387196624291,-0.401593372583645,-0.165465420856152,3,8,3,1,2
6,8,1,0.1,0.0690400463960008,-0.401593372583645,-0.117954297380693,3,8,7,1,2
6,9,1,0.1,0.40784359676104,-0.401593372583645,-0.0973740395697562,7,12,7,1,0
6,10,1,0.1,-0.66503431272825,-0.839695233583985,0.330251161025453,7,10,7,1,2
6,11,1,0.1,-0.430342270027468,-0.401593372583645,-0.286324804445848,7,12,7,2,0
6,12,1,0.1,-0.864434318932674,-0.839695233583985,0.0709967180649708,3,10,7,2,2
6,13,1,0.1,-0.118007747034698,-0.401593372583645,0.0173634722638821,3,8,3,1,0
6,14,1,0.1,1.42954805333061,-0.839695233583985,-0.227804623351133,3,10,3,2,0
6,15,1,0.1,-0.779733431341415,-0.401593372583645,-0.324882582279927,3,12,3,2,1
6,16,1,0.1,0.317848903695326,-0.401593372583645,-0.280890800477307,7,8,3,2,2
6,17,1,0.1,-1.05677591783783,0.912712210417374,0.38292388116059,3,12,7,1,1
6,18,1,0.1,-0.250352883896041,-0.401593372583645,0.217025548644306,3,12,3,2,2
6,19,1,0.1,-0.966781224772113,2.22701779341839,0.610685608786072,3,10,3,1,1
6,20,1,0.1,-0.91031396637794,2.22701779341839,-0.466156377009175,7,10,7,1,1
6,21,1,0.1,-0.403873242655199,-0.839695233583985,-0.232699371401729,7,10,3,1,0
6,22,1,0.1,-0.959722817472841,-0.401593372583645,0.870641819556075,7,12,3,1,2
6,23,1,0.1,-0.423283862728196,-0.401593372583645,0.247446873713647,7,8,7,2,1
6,24,1,0.1,-0.289174124042035,-0.401593372583645,0.404543043431602,7,12,3,2,0
7,1,1,0.1,1.46706724705617,-0.290957186981324,-0.893863309381574,7,8,7,2,2
7,2,1,0.1,3.76560498367291,-0.290957186981324,-1.08950297474204,3,8,7,1,2
7,3,1,0.1,0.939971510647681,-0.290957186981324,-0.30657068715356,7,12,3,2,2
7,4,1,0.1,0.085942975707351,-0.290957186981324,-0.200512490723651,3,12,7,2,2
7,6,1,0.1,-0.254334018682937,-0.290957186981324,0.747092312665011,7,8,3,1,0
7,7,1,0.1,-0.457833005524187,-0.290957186981324,0.290907214271505,3,8,3,2,0
7,8,1,0.1,-0.368871699801236,-0.290957186981324,0.156972633428926,3,8,3,2,1
7,9,1,0.1,0.065926681919687,-0.290957186981324,-0.196991130345443,3,8,7,1,1
7,10,1,0.1,-0.331063144868982,2.76409327632257,-0.0612914002192113,7,10,3,1,2
7,12,1,0.1,-0.00524236265867385,1.23656804467062,0.0084234391339463,7,12,3,1,1
7,13,1,0.1,-0.510097772636421,-0.290957186981324,0.74247137445146,7,8,3,2,1
7,14,1,0.1,-0.472289217704167,-0.290957186981324,0.330667371268723,3,12,7,2,0
7,15,1,0.1,-0.541234229639454,-0.290957186981324,0.832844499753165,7,8,7,2,0
7,16,1,0.1,-0.531226082745622,-0.290957186981324,0.0699398579788461,3,12,3,2,2
7,17,1,0.1,-0.294366606258265,-0.800132264198639,-0.0407454803031824,3,10,3,1,2
7,19,1,0.1,-0.425584532199618,-0.800132264198639,-0.22275677598517,7,10,7,2,1
7,20,1,0.1,-0.446712842308818,-0.800132264198639,-0.0659887565855182,3,10,7,1,0
7,21,1,0.1,-0.430032597485765,2.76409327632257,0.200352272382203,7,10,7,1,1
7,22,1,0.1,-0.401120173125806,-0.290957186981324,0.0539296650954641,7,8,7,1,2
7,23,1,0.1,-0.516769870565642,-0.290957186981324,-0.458968670513779,7,12,7,1,0
7,24,1,0.1,-0.337735242798203,-0.290957186981324,-0.0190365493694865,7,8,3,2,0
8,1,1,0.1,1.74430280251217,-0.81401415689105,0.367468231024543,3,10,7,1,1
8,2,1,0.1,1.95922110775353,-0.222003860970287,0.219401680383227,3,8,3,2,0
8,3,1,0.1,1.11011763950489,-0.81401415689105,0.767362272067194,7,10,3,2,2
8,4,1,0.1,1.51881474455403,-0.81401415689105,0.18823135575581,7,10,3,2,0
8,5,1,0.1,0.070758622354054,-0.222003860970287,-0.0530379372433649,3,8,3,1,1
8,6,1,0.1,-0.0490319084362115,1.554027026792,-0.36243889829201,7,12,7,2,0
8,7,1,0.1,1.08193163226012,-0.222003860970287,0.13813113605628,7,8,7,1,1
8,8,1,0.1,1.17353615580562,-0.222003860970287,0.103631041518201,3,8,3,2,2
8,9,1,0.1,-1.06020491834228,-0.222003860970287,-1.36279229674572,3,8,7,1,2
8,10,1,0.1,-0.817100605856149,-0.222003860970287,-0.101473861630794,7,8,3,1,0
8,11,1,0.1,-0.891088874873666,-0.222003860970287,-0.216662791181851,3,8,7,1,0
8,12,1,0.1,0.204642156766704,-0.222003860970287,0.0700125766853325,7,8,7,1,0
8,13,1,0.1,-0.426019755334988,-0.222003860970287,0.131778834597882,7,8,3,1,1
8,14,1,0.1,-0.820623856761745,-0.222003860970287,0.135884587398175,3,12,7,2,2
8,15,1,0.1,-0.915751631212838,-0.81401415689105,-0.00482450383961033,3,10,7,2,1
8,16,1,0.1,0.704943785361342,-0.222003860970287,0.841477713369519,7,12,7,2,2
8,17,1,0.1,0.641525269060613,3.3300579145543,0.612599996333228,7,10,7,2,1
8,18,1,0.1,-0.993263151135951,1.554027026792,-0.582163284102439,3,12,3,1,2
8,19,1,0.1,-0.140636431981709,-0.222003860970287,0.254314893638643,7,12,3,2,1
8,20,1,0.1,-1.05315841653108,-0.222003860970287,0.0495630043753327,3,12,3,1,0
8,21,1,0.1,-0.898135376684858,1.554027026792,0.00249284279126094,7,8,7,1,2
8,22,1,0.1,-0.947460889363202,-0.81401415689105,-0.375589827511952,3,10,3,2,1
8,23,1,0.1,-0.95803064207999,-0.81401415689105,0.0507568527082455,7,10,3,1,2
8,24,1,0.1,-0.239287457338398,-0.222003860970287,0.375545343311002,3,12,7,2,0
9,1,1,0.1,0.260359713264582,-0.375540841706121,0.0278443081392052,7,8,7,1,0
9,2,1,0.1,0.872162075787297,0.706016782407506,0.0614131094549696,3,8,7,1,2
9,3,1,0.1,0.0506971058832025,0.706016782407506,0.0763791550800251,3,12,3,2,2
9,4,1,0.1,0.229425885946018,-0.375540841706121,0.217615900144981,7,12,3,2,2
9,5,1,0.1,0.555949618753085,-0.375540841706121,0.044709757162161,7,8,3,1,1
9,6,1,0.1,-0.45455540698668,-0.375540841706121,1.56577115828358,7,8,7,1,2
9,7,1,0.1,0.188180782854599,-0.736060049743996,0.0102621547697418,7,10,7,2,1
9,8,1,0.1,3.27468933086245,-0.375540841706121,0.325273034700811,3,8,7,2,2
9,9,1,0.1,0.0575712897317723,3.95068965474839,0.39499447191253,3,12,7,1,1
9,10,1,0.1,-0.433932855440971,0.706016782407506,0.178123527234698,7,12,3,1,0
9,11,1,0.1,1.06463922354725,-0.736060049743996,-0.106467561768682,3,10,3,2,0
9,12,1,0.1,-0.884191897522294,-0.375540841706121,0.0166272200831862,7,8,7,1,1
9,13,1,0.1,-0.976993379477987,0.706016782407506,-0.0718437960678855,3,12,3,1,1
9,14,1,0.1,0.896221719257292,-0.375540841706121,0.0781627243016121,3,8,3,1,0
9,15,1,0.1,-0.578290716260937,0.706016782407506,-0.0890246288133094,7,8,3,2,1
9,16,1,0.1,-0.949496644083708,-0.375540841706121,0.00225402926589009,3,12,3,2,1
9,17,1,0.1,-0.743271128626613,-0.736060049743996,0.327669569412592,7,10,3,2,0
9,18,1,0.1,-0.935748276386568,0.706016782407506,0.022520744661865,3,12,7,1,0
9,19,1,0.1,0.384095022538839,-0.736060049743996,0.16396554749887,3,10,7,2,0
9,20,1,0.1,1.22618254398864,-0.375540841706121,0.155808411821447,3,12,3,1,2
9,21,1,0.1,-0.616098727428071,-0.375540841706121,-0.43053043909243,3,8,7,2,1
9,22,1,0.1,-0.66421801436806,-0.375540841706121,0.0567790127919553,7,8,7,2,2
9,23,1,0.1,-1.21071563032936,-0.375540841706121,-0.070028349447453,7,8,3,1,2
9,24,1,0.1,-0.612661635503786,-0.736060049743996,1.25170112895656,7,10,7,2,0
10,1,1,0.1,0.296138490004323,-0.435642635968827,0.178905260692409,7,12,3,1,2
10,2,1,0.1,-0.863279046458227,-0.91088914793482,0.337262430181134,7,10,3,1,0
10,3,1,0.1,-0.850710834680855,0.990096899929152,-0.473111351124243,7,12,7,1,1
10,4,1,0.1,0.726599743379308,-0.435642635968827,-0.00924492017524917,7,8,7,2,2
10,5,1,0.1,-0.0212088573743149,-0.435642635968827,0.159765074666891,7,12,7,2,1
10,6,1,0.1,1.78232953267854,0.990096899929152,-0.0693243907224566,7,12,7,1,2
10,7,1,0.1,0.113899419232432,0.990096899929152,0.116762170463174,3,8,3,1,0
10,8,1,0.1,0.393542131278955,-0.91088914793482,0.192466552010232,3,10,7,1,2
10,9,1,0.1,-0.341698257697296,2.41583643582713,0.3885051548366,3,10,3,2,0
10,10,1,0.1,-0.401397263639812,-0.91088914793482,0.058292551891525,7,10,3,2,0
10,11,1,0.1,-0.0777658103724881,0.990096899929152,0.0778519224336504,7,8,7,2,0
10,12,1,0.1,0.73916795515668,-0.435642635968827,-0.170497485531507,3,12,7,2,2
10,13,1,0.1,-0.674755869797649,-0.91088914793482,0.200645754873729,7,10,3,1,1
10,14,1,0.1,-0.995245270120631,-0.435642635968827,0.110762952330016,3,8,7,2,1
10,15,1,0.1,2.75008183953617,-0.91088914793482,-0.089256142545172,7,10,7,1,0
10,16,1,0.1,0.54750272555176,-0.435642635968827,0.563129923065148,3,12,3,2,2
10,17,1,0.1,0.849139808208683,-0.435642635968827,-0.0120665917728033,3,8,3,2,1
10,18,1,0.1,-0.847568781736512,-0.435642635968827,0.567286438332045,3,12,3,1,2
10,19,1,0.1,-1.33772904105401,0.990096899929152,-0.155823962354128,3,12,7,1,1
10,20,1,0.1,0.054200413289916,2.41583643582713,0.397163201410414,3,10,7,2,0
10,21,1,0.1,-1.3440131469427,-0.435642635968827,0.191837520413263,7,12,3,2,1
10,22,1,0.1,1.07536762020138,-0.435642635968827,0.0180209395477043,3,8,7,1,0
10,23,1,0.1,-0.800437987571368,-0.435642635968827,-0.120414692363501,3,8,3,1,1
10,24,1,0.1,-0.772159511072281,-0.435642635968827,-0.031595527861972,7,8,3,2,2
12,1,1,0.1,1.63379658227562,-0.0687084700658151,-0.272942197165844,7,8,7,2,2
12,2,1,0.1,1.03887795843342,-0.0687084700658151,0.0709867673167713,3,8,7,1,2
12,3,1,0.1,0.997957629809359,-0.0687084700658151,-0.550920221075181,7,12,3,2,2
12,4,1,0.1,1.58343310089215,-0.0687084700658151,0.20201320794792,3,12,7,2,2
12,5,1,0.1,-0.558588716698391,-0.893210110855586,-0.00566293679132313,3,10,7,2,1
12,6,1,0.1,0.946020289632659,-0.0687084700658151,-0.171869926259903,7,8,3,1,0
12,7,1,0.1,1.61018870037712,-0.0687084700658151,0.147580766434884,3,8,3,2,0
12,8,1,0.1,0.340084654237832,-0.0687084700658151,0.582154437725702,3,8,3,2,1
12,9,1,0.1,0.333789219064899,-0.0687084700658151,-1.19211946757154,3,8,7,1,1
12,10,1,0.1,0.920838548940926,-0.893210110855586,0.26034439255819,7,10,3,1,2
12,11,1,0.1,0.90352610221536,2.4047964523035,0.21759042079469,3,12,3,1,1
12,12,1,0.1,-0.234373805292328,2.4047964523035,-0.915735893311497,7,12,3,1,1
12,13,1,0.1,-1.11416087070975,-0.0687084700658151,1.27557580100907,7,8,3,2,1
12,14,1,0.1,-0.324083756506627,-0.0687084700658151,0.157165321354813,3,12,7,2,0
12,15,1,0.1,-0.621543068427724,-0.0687084700658151,-0.330009444328784,7,8,7,2,0
12,16,1,0.1,0.417203735106265,-0.0687084700658151,-0.689362479933364,3,12,3,2,2
12,17,1,0.1,-0.659315679465324,-0.893210110855586,-0.467211277968501,3,10,3,1,2
12,18,1,0.1,-0.846604875860088,-0.893210110855586,-0.39649761167833,3,10,3,1,0
12,19,1,0.1,-1.26997289123985,-0.893210110855586,-0.108786919977599,7,10,7,2,1
12,20,1,0.1,-1.03074635466839,-0.893210110855586,0.400510090477117,3,10,7,1,0
12,21,1,0.1,-0.819849276375122,-0.893210110855586,0.0456759778542659,7,10,7,1,1
12,22,1,0.1,-0.936314827074387,-0.0687084700658151,-0.107135848688719,7,8,7,1,2
12,23,1,0.1,-0.99454760242402,2.4047964523035,0.0384263941246972,7,12,7,1,0
12,24,1,0.1,-1.31561479624362,-0.0687084700658151,0.322445242080773,7,8,3,2,0
13,1,1,0.1,0.786978041941942,3.07487454701057,0.171426975198599,7,10,7,1,1
13,2,1,0.1,0.495618884396345,-0.229468249776909,0.0101678970023702,3,8,3,1,1
13,3,1,0.1,-0.376146213974209,1.42270314861683,-0.220313248659864,3,12,7,1,0
13,4,1,0.1,0.958093737643324,-0.229468249776909,0.0764473839159787,3,8,7,2,1
13,5,1,0.1,1.40669434529289,-0.229468249776909,0.0873593094047231,7,12,3,1,2
13,6,1,0.1,0.810101784604291,-0.780192049241489,0.496611077737455,7,10,3,2,2
13,7,1,0.1,1.27951376064997,-0.780192049241489,-0.160410809241182,3,10,3,2,2
13,8,1,0.1,1.39744484822795,1.42270314861683,-0.010042238835097,7,12,3,1,1
13,9,1,0.1,0.49793125866258,1.42270314861683,0.0304839007292433,3,12,7,2,2
13,10,1,0.1,0.523367375591164,-0.780192049241489,0.446010055656617,3,10,7,2,0
13,11,1,0.1,0.375375422552131,-0.229468249776909,-0.0112536952485531,7,12,3,1,0
13,12,1,0.1,1.19164353853305,-0.229468249776909,0.0732909089417742,7,12,7,2,2
13,13,1,0.1,0.363813551220956,-0.229468249776909,4.90984355514673e-05,3,8,3,2,0
13,14,1,0.1,-0.850182938552362,-0.780192049241489,-0.122908798990824,3,10,3,2,1
13,15,1,0.1,-1.11379360490314,-0.229468249776909,0.645803100732332,3,8,3,1,2
13,16,1,0.1,0.449371399071647,-0.780192049241489,0.0156252192203903,7,10,7,1,2
13,17,1,0.1,0.0886410135390041,-0.229468249776909,-0.205879865208897,7,12,3,2,1
13,18,1,0.1,-1.7011366685268,-0.780192049241489,0.639304676673669,3,10,3,1,0
13,19,1,0.1,-0.998174891591396,-0.229468249776909,-0.000339947696042744,7,8,7,1,0
13,20,1,0.1,-0.713752856844504,1.42270314861683,-0.173491310160917,3,12,7,1,1
13,21,1,0.1,-1.05367187398103,-0.780192049241489,0.0966167695620919,3,10,7,1,2
13,22,1,0.1,-1.33809390872792,-0.229468249776909,-0.0569130141694929,7,12,7,2,1
13,23,1,0.1,-1.4490878735072,-0.780192049241489,0.164223741504163,7,10,7,2,0
13,24,1,0.1,-1.03054813131868,-0.229468249776909,-0.0378418984355946,7,8,3,2,0
14,2,1,0.1,-0.315219554572394,-0.268182305786454,5.91529510033836,3,8,7,1,2
14,3,1,0.1,1.56452084710522,1.50182091240414,6.75954503163469,7,12,7,2,2
14,4,1,0.1,0.895953384652873,-0.858183378516652,8.6522381149717,7,10,3,1,1
14,10,1,0.1,-0.765083789141779,1.50182091240414,5.0742025247711,3,12,3,1,2
14,11,1,0.1,-0.994860598183372,-0.268182305786454,1.42092115246368,7,8,7,2,1
14,16,1,0.1,-0.456407714344939,-0.268182305786454,5.06209213097025,7,12,7,1,1
14,17,1,0.1,-0.665421558714099,-0.858183378516652,6.99835501657895,7,10,7,2,0
14,19,1,0.1,0.513914834680103,-0.268182305786454,5.86660377116435,7,8,3,2,2
14,20,1,0.1,-0.986555412314399,1.50182091240414,9.71383976370148,3,12,3,1,1
14,22,1,0.1,1.71262999510191,-0.858183378516652,7.22678684517186,7,10,3,1,0
14,24,1,0.1,-0.503470434269121,-0.858183378516652,6.17581417496905,7,10,7,1,2
15,1,1,0.1,1.08278858340077,-0.715491385636572,-0.428775151401573,3,8,7,2,2
15,2,1,0.1,0.64626485667867,0.946295058422562,-0.71722545951971,3,10,7,1,0
15,3,1,0.1,2.21932333135292,0.115401836392995,-0.0711104157238903,3,12,3,2,0
15,4,1,0.1,1.31874735460191,0.115401836392995,0.0362565982856395,3,12,3,1,0
15,5,1,0.1,0.249067591823422,0.115401836392995,-1.18397012812714,7,12,7,1,1
15,6,1,0.1,2.44741681018068,-0.99245579297976,-0.392699621250094,3,10,3,1,2
15,7,1,0.1,-0.671171615861012,-0.715491385636572,0.0432623690399018,7,8,3,1,0
15,8,1,0.1,-0.710498077727868,2.6080815024817,-0.976787563975506,3,12,7,1,1
15,9,1,0.1,1.01593359822712,-0.715491385636572,-0.203722847038048,3,8,7,1,2
15,10,1,0.1,-0.226782596765537,0.946295058422562,-0.0255530721547892,7,10,3,2,0
15,11,1,0.1,0.103559682916055,-0.715491385636572,-0.775803340901482,3,8,7,2,0
15,12,1,0.1,0.426036670224275,-0.715491385636572,-1.17922050309879,7,8,3,1,2
15,13,1,0.1,-0.0340829336179419,-0.715491385636572,-0.293393692696328,7,8,7,1,2
15,14,1,0.1,-0.970052726049118,0.115401836392995,0.415865612354146,3,12,3,2,2
15,15,1,0.1,-1.1116279887698,0.115401836392995,-0.888736637440914,7,12,3,2,2
15,16,1,0.1,-0.66330632348764,0.115401836392995,-1.02781999398762,3,12,7,2,1
15,17,1,0.1,-0.541394291700386,2.6080815024817,-0.548737086766121,3,12,3,1,1
15,18,1,0.1,-1.02117712647603,0.115401836392995,0.555707363456345,7,12,7,2,2
15,19,1,0.1,-0.266109058632393,-0.715491385636572,0.21931392564946,7,8,7,2,0
15,20,1,0.1,-0.596451338313985,-0.715491385636572,-1.65239848825245,7,8,3,2,1
15,21,1,0.1,-0.616114569247413,-0.715491385636572,-1.0129490794661,3,8,3,2,1
15,22,1,0.1,-0.293637581939192,0.946295058422562,-0.109396595322397,7,10,7,2,1
15,23,1,0.1,-0.793083647648266,-0.715491385636572,0.044364383953472,7,8,3,1,1
15,24,1,0.1,-0.993648603169232,-0.715491385636572,-0.696266067714835,7,8,7,1,0
16,1,1,0.1,-0.0767076766725516,-0.300796416641907,-0.201128784794986,3,12,7,2,2
16,2,1,0.1,-0.0369333258053026,-0.300796416641907,-0.273767996309043,3,8,7,1,2
16,3,1,0.1,1.44202314929934,-0.300796416641907,-0.354828686211092,7,12,7,2,2
16,4,1,0.1,-0.737448933936647,1.76180758318831,-0.475961300425556,7,10,3,1,1
16,5,1,0.1,-0.0734607908874701,-0.300796416641907,-0.775488077409004,3,12,3,2,1
16,6,1,0.1,0.620561045673711,-0.300796416641907,-0.1546033612174,7,8,3,2,1
16,7,1,0.1,-0.0109582395246502,-0.300796416641907,-0.318004157375884,7,8,3,2,0
16,8,1,0.1,-0.339705425264157,-0.644563749946943,-0.260359556847067,3,10,7,2,1
16,9,1,0.1,-0.334023375140264,-0.300796416641907,-0.541605713844352,3,8,3,1,0
16,10,1,0.1,-1.01181078277604,0.730505583273202,-1.0406776931961,3,12,3,1,2
16,11,1,0.1,2.18961860131437,-0.300796416641907,-0.689160675458839,7,8,7,2,1
16,12,1,0.1,-0.677381546912638,-0.644563749946943,-0.0631718785529115,7,10,3,1,2
16,13,1,0.1,0.749624755630703,-0.300796416641907,-0.601457961890213,3,8,7,2,0
16,14,1,0.1,-0.898981501744454,0.730505583273202,-0.101838389216996,3,12,3,2,2
16,15,1,0.1,-0.22038237266241,-0.644563749946943,-0.357004951911627,3,10,7,1,0
16,16,1,0.1,0.573481201790029,3.82441158301853,-0.303365796196931,7,12,7,1,1
16,17,1,0.1,0.221194094108681,-0.644563749946943,-0.349758583855907,7,10,7,2,0
16,18,1,0.1,-0.839725836166716,-0.300796416641907,-1.09915791473626,7,12,7,1,0
16,19,1,0.1,-0.0702139051023885,-0.300796416641907,-0.48193124808526,7,8,3,2,2
16,20,1,0.1,-0.574292923236299,0.730505583273202,-0.167406376296562,3,12,3,1,1
16,21,1,0.1,2.82925510097544,-0.300796416641907,-0.655251544617829,3,12,3,2,0
16,22,1,0.1,-0.585657023484085,-0.644563749946943,-0.102828309687349,7,10,3,1,0
16,23,1,0.1,-1.0183045543462,-0.300796416641907,-0.333038719045872,3,8,7,1,1
16,24,1,0.1,-1.11976973513,-0.644563749946943,-0.665867869607981,7,10,7,1,2
17,1,1,0.1,1.15396500324483,-0.25993450567827,-0.216232494800378,3,8,7,2,1
17,2,1,0.1,2.26490879391686,1.07687152352426,-0.15971216252695,7,12,7,2,1
17,3,1,0.1,0.419764882326164,-0.25993450567827,0.00214621366041228,3,8,3,2,2
17,4,1,0.1,1.66186175939697,-0.25993450567827,0.22251021520725,7,8,7,1,1
17,5,1,0.1,-0.633317252581696,-0.705536515412446,1.08705545534743,7,10,3,1,2
17,6,1,0.1,0.574062631030612,2.41367755272679,-0.258594603172434,7,10,3,1,1
17,7,1,0.1,-0.818474551027034,-0.705536515412446,0.758229827338032,3,10,3,1,2
17,8,1,0.1,-0.94705600828074,-0.705536515412446,0.947319269713195,3,10,7,2,0
17,9,1,0.1,-1.19264659163532,-0.25993450567827,0.813021291123757,7,8,3,2,0
17,10,1,0.1,1.63228802422862,-0.25993450567827,0.448452262772024,7,8,3,2,1
17,11,1,0.1,-0.875050392218665,-0.705536515412446,-0.190708241913959,3,10,3,2,0
17,12,1,0.1,-0.68860727920079,-0.25993450567827,0.721046658150325,7,8,7,1,2
17,13,1,0.1,0.620351955641947,-0.705536515412446,0.0200794922631404,3,10,7,1,1
17,14,1,0.1,-0.76318452440794,-0.705536515412446,0.0245982443440718,7,10,3,2,2
17,15,1,0.1,-0.148565158735221,-0.25993450567827,0.116161065672528,3,12,3,1,1
17,16,1,0.1,-0.692464722918401,-0.705536515412446,0.635494947446026,3,10,3,2,1
17,17,1,0.1,-0.00583974118360595,-0.25993450567827,0.060500637146956,7,8,7,2,0
17,18,1,0.1,-0.299005463722058,2.41367755272679,0.341168050108597,7,10,3,1,0
17,19,1,0.1,1.0523856520144,-0.25993450567827,0.278842941196792,3,12,7,1,2
17,20,1,0.1,-0.439159252128598,-0.25993450567827,0.231597218883983,7,8,7,1,0
17,21,1,0.1,-0.884051094226424,2.41367755272679,1.3764064650499,3,10,3,1,0
17,22,1,0.1,0.826082287247878,-0.25993450567827,-0.0109287621605377,7,8,7,2,2
17,23,1,0.1,-0.929054604265221,-0.25993450567827,0.96345747248879,3,12,7,1,0
17,24,1,0.1,-0.889194352516572,-0.25993450567827,0.596044467731331,3,12,7,2,2
18,1,1,0.1,2.06919839577808,0.295163026345123,-0.0579479718655599,7,12,3,1,1
18,2,1,0.1,0.199849867580136,-0.885489079035371,-0.0957086444008206,3,10,7,1,1
18,3,1,0.1,-0.0765580771875939,-0.885489079035371,0.138159639575774,7,10,3,2,2
18,4,1,0.1,1.84232019833867,0.295163026345123,-0.106796528274071,3,8,7,1,2
18,5,1,0.1,0.599283313776277,3.83711934248661,-0.433365150648539,3,12,3,1,1
18,6,1,0.1,0.985934889694142,0.295163026345123,-0.525008055849154,3,12,3,2,0
18,7,1,0.1,0.0256968850386183,0.295163026345123,-0.387595324227411,7,8,7,1,1
18,8,1,0.1,-0.599017024812147,0.295163026345123,-0.0172237052713295,7,12,3,1,2
18,9,1,0.1,-0.848263495238539,0.295163026345123,0.164761923579395,3,8,3,1,0
18,10,1,0.1,-0.490371127446796,-0.885489079035371,-0.210935578371346,7,10,3,2,1
18,11,1,0.1,-0.298643073272648,-0.885489079035371,0.15468119758321,3,10,7,2,1
18,12,1,0.1,0.695147340863351,0.295163026345123,0.00428261067555493,7,8,3,2,0
18,13,1,0.1,0.01930594989948,-0.885489079035371,-0.272898825900236,3,10,3,2,2
18,14,1,0.1,0.271747887895441,-0.885489079035371,-0.537155151397371,7,10,7,2,1
18,15,1,0.1,-1.00004820479307,0.295163026345123,0.239905527380184,7,12,7,2,0
18,16,1,0.1,-1.03999154941269,-0.885489079035371,1.09355878467379,3,10,3,2,1
18,17,1,0.1,2.36477914596322,-0.885489079035371,-0.361422064778284,7,10,7,2,2
18,18,1,0.1,-0.229940520526912,0.295163026345123,-0.20255771540773,3,12,7,2,2
18,19,1,0.1,-0.522325803142488,0.295163026345123,0.58159346555568,7,8,7,1,0
18,20,1,0.1,-0.43924364633369,0.295163026345123,0.0592718819849452,3,8,3,1,2
18,21,1,0.1,-1.18858079139765,0.295163026345123,0.955592101248827,3,8,7,1,0
18,22,1,0.1,-1.193373992752,0.295163026345123,0.0750674618497678,3,8,7,2,0
18,23,1,0.1,-0.189997175907298,0.295163026345123,0.20036601086032,7,8,3,1,0
18,24,1,0.1,-0.956909392603889,-0.885489079035371,-0.0340417789340339,7,10,7,1,2
19,1,1,0.1,1.06182546496613,-0.978945010372561,-0.198980684780845,3,10,7,2,2
19,2,1,0.1,-0.215589337084942,1.6315750172876,0.0041878023423846,7,12,7,2,0
19,3,1,0.1,2.63505186781269,-0.326315003457521,-0.215612359623168,7,12,7,2,1
19,4,1,0.1,2.63300472870684,-0.326315003457521,-0.0579609955930723,3,12,3,2,0
19,5,1,0.1,-0.370148339576699,1.6315750172876,0.205622009246052,3,12,7,1,1
19,6,1,0.1,0.0239259382996345,-0.326315003457521,0.179017336471014,3,12,3,1,0
19,7,1,0.1,0.334067512836073,-0.326315003457521,0.00360309322908507,7,8,3,1,1
19,8,1,0.1,-0.673124927242658,1.6315750172876,-0.376895621909003,7,12,3,1,0
19,9,1,0.1,-0.332276266118454,-0.978945010372561,0.201090315860789,3,10,3,2,2
19,10,1,0.1,-0.217636476190793,-0.978945010372561,0.178049092590382,7,10,3,2,2
19,11,1,0.1,1.39755627832571,-0.326315003457521,-0.100832503761484,7,8,7,1,2
19,12,1,0.1,0.455872289634213,-0.326315003457521,-0.160683477018922,7,12,3,1,2
19,13,1,0.1,-0.0241818306878659,-0.326315003457521,-0.242269032444438,3,8,3,1,2
19,14,1,0.1,-0.201259363343984,-0.326315003457521,0.121042591514148,3,8,3,1,1
19,15,1,0.1,-0.686431331430691,1.6315750172876,0.365035234344092,3,12,7,1,0
19,16,1,0.1,-0.707926292042127,-0.326315003457521,0.0980655782476224,7,8,3,2,1
19,17,1,0.1,-0.729421252653563,-0.978945010372561,-0.0809545885180402,7,10,7,1,0
19,18,1,0.1,-0.517542355197976,-0.326315003457521,0.0178486205598399,3,12,7,2,1
19,19,1,0.1,-0.954606554297182,1.6315750172876,0.468039587076216,7,12,7,1,1
19,20,1,0.1,-0.0159932742644616,-0.978945010372561,0.0531531000804021,7,10,7,2,2
19,21,1,0.1,-0.869650281404362,-0.326315003457521,-0.156299732164794,7,12,3,2,0
19,22,1,0.1,-0.54415516357404,-0.326315003457521,0.0349198274263892,3,12,7,2,0
19,23,1,0.1,-0.575885819714732,1.6315750172876,0.442383264420984,3,12,7,1,2
19,24,1,0.1,-0.905475215756756,-0.978945010372561,0.229351278867538,3,10,3,2,1
20,1,1,0.1,0.0920476412209141,-0.599979131523567,0.653659426846938,7,10,3,1,2
20,2,1,0.1,1.42930688743486,-0.279990261377665,1.16118242718609,3,12,3,1,2
20,3,1,0.1,-0.670989819035713,-0.279990261377665,0.127804015765718,3,12,3,2,0
20,4,1,0.1,0.589632477021451,-0.599979131523567,1.44433493723848,3,10,7,1,2
20,5,1,0.1,0.771784068698434,1.63994295949775,1.67118110396244,7,10,3,1,0
20,6,1,0.1,0.582968394399123,-0.599979131523567,1.82010210890636,3,10,7,1,1
20,7,1,0.1,0.0187427323752992,1.63994295949775,1.18633162486558,3,10,7,1,0
20,8,1,0.1,1.27270094581013,0.679976349060042,0.200060095274886,7,12,3,1,1
20,9,1,0.1,0.30529828513543,-0.599979131523567,1.62531498571888,3,10,3,1,1
20,10,1,0.1,2.72991367922599,-0.279990261377665,2.17670101938909,3,12,3,2,2
20,11,1,0.1,-0.673211179909823,-0.279990261377665,0.251945213510732,3,8,3,1,0
20,12,1,0.1,0.100933084717352,-0.279990261377665,1.78849385278516,3,8,3,2,1
20,13,1,0.1,0.648498540185354,-0.599979131523567,0.382917479654534,7,10,7,1,0
20,14,1,0.1,0.485228515938303,-0.279990261377665,0.283499988142964,3,8,7,2,1
20,15,1,0.1,0.785112233943091,-0.599979131523567,0.86560437745175,7,10,3,2,1
20,16,1,0.1,-1.04639980676023,3.55987618037316,0.426793531825923,7,12,7,1,1
20,17,1,0.1,-1.11637267429468,0.679976349060042,-0.00825506757185596,7,12,7,2,1
20,18,1,0.1,-0.887572504261393,-0.279990261377665,0.472324070077332,7,12,3,2,2
20,19,1,0.1,-0.812046234541669,-0.279990261377665,0.023480922141598,7,12,7,1,2
20,20,1,0.1,-1.06639205462721,-0.279990261377665,1.37018357082809,7,12,3,2,0
20,21,1,0.1,-1.04862116763433,-0.599979131523567,2.79492105847374,7,10,7,2,2
20,22,1,0.1,-1.15635717002865,-0.279990261377665,0.329781067634792,3,8,7,2,0
20,23,1,0.1,-0.492170268669895,-0.599979131523567,0.555831278063982,3,10,7,2,2
20,24,1,0.1,-0.842034606342148,-0.599979131523567,1.21223482305103,7,10,7,2,0
21,1,1,0.1,1.48226186016653,-0.435494170355693,-1.05175323569522,3,12,7,2,2
21,2,1,0.1,1.35116110599867,-0.435494170355693,1.06281366791803,3,8,7,1,2
21,3,1,0.1,0.593690081917666,-0.435494170355693,0.418675749901832,7,12,7,2,2
21,4,1,0.1,1.70367646720559,2.17747085177846,0.716086202014345,7,10,3,1,1
21,5,1,0.1,1.64249611526059,-0.435494170355693,-0.670222718778285,3,12,3,2,1
21,6,1,0.1,1.73280996813178,-0.435494170355693,0.788818911492236,7,8,3,2,1
21,7,1,0.1,-0.830938113373136,-0.435494170355693,1.47198919250569,7,8,3,2,0
21,8,1,0.1,-0.868811664577186,2.17747085177846,-0.283586469067509,3,10,7,2,1
21,9,1,0.1,0.748097636826485,-0.435494170355693,0.761852456736532,3,8,3,1,0
21,10,1,0.1,-0.0122867373471331,-0.435494170355693,0.329579706348219,3,12,3,1,2
21,11,1,0.1,0.0314135140421553,-0.435494170355693,-0.106639322983397,7,8,7,2,1
21,12,1,0.1,-0.428895800591682,-0.870988340711385,0.152497202247263,7,10,3,1,2
21,13,1,0.1,-0.297795046423817,-0.435494170355693,-0.114528238030542,3,8,7,2,0
21,14,1,0.1,-0.70275070929789,-0.435494170355693,2.08212710941606,3,12,3,2,2
21,15,1,0.1,-0.679443908556936,-0.870988340711385,-1.79147333130458,3,10,7,1,0
21,16,1,0.1,-0.423069100406444,0.870988340711385,2.92779425994384,7,12,7,1,1
21,17,1,0.1,-0.676530558464317,-0.870988340711385,0.370268538334298,7,10,7,2,0
21,18,1,0.1,0.520856329602185,-0.435494170355693,0.590808742821197,7,12,7,1,0
21,19,1,0.1,-1.04943937031958,0.870988340711385,-1.74456350171567,7,8,3,2,2
21,21,1,0.1,-1.08148622133839,0.870988340711385,0.218640267183743,3,12,3,2,0
21,22,1,0.1,-1.11061972226458,2.17747085177846,2.1141933561463,7,10,3,1,0
21,23,1,0.1,-0.714404109668367,-0.435494170355693,2.00268064180747,3,8,7,1,1
21,24,1,0.1,-0.929992016522189,-0.870988340711385,-0.501949312597227,7,10,7,1,2
22,1,1,0.1,0.0951742196796061,-0.419322312840655,-2.68102701433112,7,8,7,1,1
22,2,1,0.1,0.408982923028798,1.0273396664596,2.89446194829155,3,12,7,2,2
22,3,1,0.1,3.29831915508538,1.0273396664596,0.940186943246507,3,12,3,1,0
22,4,1,0.1,-0.28751932099014,-0.419322312840655,3.15178865757714,3,8,3,1,2
22,5,1,0.1,0.183193734033648,-0.419322312840655,-4.43107609673422,7,12,3,1,1
22,6,1,0.1,-0.670212861659885,-0.419322312840655,0.503751723361846,7,8,7,2,2
22,7,1,0.1,0.711310820157897,-0.901542972607407,0.440587983733839,7,10,3,2,0
22,8,1,0.1,-0.773540117640717,-0.419322312840655,-3.6767028947769,7,12,3,2,1
22,9,1,0.1,-0.624289636779516,1.0273396664596,-1.9835355206038,7,12,7,1,2
22,10,1,0.1,1.23560097087545,2.47400164575986,-2.28304660623195,3,10,3,1,1
22,11,1,0.1,0.0377701885791443,-0.419322312840655,-1.51665789203229,7,8,3,1,0
22,12,1,0.1,-0.0502493257748972,-0.901542972607407,0.735046429224481,3,10,3,2,0
22,13,1,0.1,0.477867760349352,-0.419322312840655,-1.09713902146037,7,8,7,1,0
22,14,1,0.1,-1.19067607697074,-0.419322312840655,0.0590967915016081,3,8,3,2,2
22,15,1,0.1,1.12844677948792,-0.419322312840655,1.001855395469,3,12,7,2,0
22,16,1,0.1,-0.448250608071433,2.47400164575986,1.86348096740865,7,10,7,2,1
22,17,1,0.1,-1.08734882098991,-0.419322312840655,0.154867882866144,7,8,3,1,2
22,18,1,0.1,0.864388236425795,1.0273396664596,-1.33466671065133,3,12,3,2,1
22,19,1,0.1,-0.635770442999608,-0.901542972607407,-0.409964748544355,3,10,7,1,2
22,21,1,0.1,-0.727616892760347,-0.901542972607407,3.84051335876236,7,10,7,2,0
22,22,1,0.1,-0.90365592146843,-0.419322312840655,-2.01409428917129,7,8,3,2,2
22,23,1,0.1,-0.597501088932634,-0.419322312840655,1.78584370752919,3,12,7,2,1
22,24,1,0.1,-0.444423672664735,-0.419322312840655,1.68853235265036,3,8,7,1,1
1,1,1,0.5,2.28434771725881,-0.255609437163093,-0.143264617093736,7,8,3,1,0
1,3,1,0.5,-0.171026510066587,-0.843511142638205,-0.104229260344547,3,10,3,1,1
1,4,1,0.5,1.60070853734751,1.50809567926225,-0.0271240430617411,3,12,3,1,2
1,5,1,0.5,-0.385782273389508,-0.255609437163093,0.743226766084963,7,12,3,1,2
1,6,1,0.5,0.0186744142019933,-0.255609437163093,-0.219098666093018,7,12,3,2,0
1,7,1,0.5,-0.0672278911271752,-0.255609437163093,0.0688884193328226,7,12,7,2,0
1,8,1,0.5,-0.471684578718677,-0.255609437163093,-0.0446357884163207,3,12,3,2,0
1,9,1,0.5,-0.428733426054093,-0.255609437163093,0.0290725262295969,3,8,7,2,0
1,10,1,0.5,-0.740129282872328,-0.255609437163093,1.35787371155733,7,8,3,2,2
1,11,1,0.5,-0.840348639089692,-0.843511142638205,0.191790833106759,7,10,7,1,1
1,12,1,0.5,-0.718653706540036,-0.255609437163093,0.578885619622866,7,8,7,1,0
1,13,1,0.5,-0.16386798462249,1.50809567926225,0.13804066908378,3,12,7,1,0
1,14,1,0.5,-0.919092418974763,-0.255609437163093,-0.0654161211925522,7,8,3,1,1
1,15,1,0.5,1.10677028170479,-0.843511142638205,0.104457325208783,3,10,7,1,2
1,16,1,0.5,0.240588702969012,-0.843511142638205,0.521090298939,3,10,7,2,2
1,17,1,0.5,2.69954219301646,1.50809567926225,0.159309619459557,7,12,7,1,2
1,18,1,0.5,0.430289627237592,-0.255609437163093,0.100753158145359,7,8,7,2,1
1,19,1,0.5,-0.679281816597501,-0.255609437163093,0.700397190623021,7,8,3,2,1
1,20,1,0.5,-0.546849095881699,-0.843511142638205,0.441928288978537,7,10,7,2,2
1,21,1,0.5,-0.443050476942287,-0.255609437163093,0.15349265210895,3,8,3,2,2
1,22,1,0.5,-0.29987996806034,-0.255609437163093,0.136540652869181,3,8,3,2,1
1,23,1,0.5,-0.589800248546284,3.27180079568758,0.272400930165599,3,10,3,1,0
1,24,1,0.5,-0.915513156252714,-0.255609437163093,0.229203272857839,3,8,7,1,1
2,1,1,0.5,0.464088670255891,-0.420558293861036,-0.0113997412626887,7,12,3,1,2
2,2,1,0.5,1.02587331658995,1.53300281310635,0.0492752312211517,7,10,3,1,0
2,3,1,0.5,0.830743635510334,3.48656392007375,-0.0494828067269806,7,12,7,1,1
2,4,1,0.5,1.23673926227276,-0.420558293861036,0.013567190265426,7,8,7,2,2
2,5,1,0.5,-0.0221619059828328,-0.420558293861036,-0.144815534206041,7,12,7,2,1
2,6,1,0.5,0.674954615938704,0.556222259622659,0.0985118812448849,7,12,7,1,2
2,7,1,0.5,1.43029531689206,-0.420558293861036,0.353743912969715,3,8,3,1,0
2,8,1,0.5,1.83943819657513,-0.746151811688934,0.138743735210146,3,10,7,1,2
2,9,1,0.5,0.0816974403982539,-0.746151811688934,-0.201528489399421,3,10,3,2,0
2,10,1,0.5,-0.402979509380151,-0.746151811688934,0.0748556230977789,7,10,3,2,0
2,11,1,0.5,-0.0945487231575296,-0.420558293861036,0.0468481898955918,7,8,7,2,0
2,12,1,0.5,0.169820522176146,0.556222259622659,-0.0192348496339054,3,12,7,2,2
2,13,1,0.5,-0.989942179079322,1.53300281310635,0.132422698101359,7,10,3,1,1
2,14,1,0.5,1.68050192408286,-0.420558293861036,0.221707193666263,3,8,7,2,1
2,15,1,0.5,-1.0607553697937,-0.746151811688934,0.0203553996716977,7,10,7,1,0
2,16,1,0.5,-0.612271828602644,-0.420558293861036,-0.0755743045907382,3,12,3,2,2
2,17,1,0.5,0.475104055478128,0.556222259622659,0.197971910989627,3,8,3,2,1
2,18,1,0.5,-0.115005867141683,-0.420558293861036,-0.0730514994866218,3,12,3,1,2
2,19,1,0.5,-0.706689416221813,0.556222259622659,-0.0778237618366683,3,12,7,1,1
2,20,1,0.5,-1.42268945566718,-0.746151811688934,-0.247926399999283,3,10,7,2,0
2,21,1,0.5,-0.635876225507436,-0.420558293861036,-0.0284340892969021,7,12,3,2,1
2,22,1,0.5,-1.38649604707984,-0.420558293861036,0.203245113908763,3,8,7,1,0
2,23,1,0.5,-1.20080812476213,-0.420558293861036,0.21745502846144,3,8,3,1,1
2,24,1,0.5,-1.25903230379396,-0.420558293861036,0.157051799674654,7,8,3,2,2
3,1,1,0.5,3.2587883326523,-0.313103974450949,-0.529817587836689,7,8,3,2,0
3,2,1,0.5,0.338950201642425,1.29714503701107,0.917704684310316,3,8,3,1,0
3,3,1,0.5,0.773530760676452,-0.313103974450949,-0.33426967479626,3,8,7,2,2
3,4,1,0.5,-0.231436782089736,1.29714503701107,3.16382237986408,7,8,3,1,1
3,5,1,0.5,-0.557372201365257,-0.313103974450949,-0.285374979463583,7,8,7,1,1
3,6,1,0.5,-0.163533569740669,2.90739404847309,1.01190454385937,7,10,7,2,1
3,7,1,0.5,-0.38761417049259,-0.849853644938288,1.64590701609518,7,10,3,1,2
3,8,1,0.5,-0.28575935196899,1.29714503701107,0.55303273877969,7,8,7,2,0
3,9,1,0.5,-0.143162606035949,1.29714503701107,1.08600339329748,3,12,7,1,1
3,10,1,0.5,-0.808614087056804,-0.849853644938288,1.67004648060835,7,10,3,2,2
3,11,1,0.5,-0.964791475459657,-0.849853644938288,0.620313751088641,3,10,7,1,0
3,12,1,0.5,-0.849356014466244,1.29714503701107,0.851932629755212,3,12,3,1,1
3,13,1,0.5,-0.50983995272091,-0.313103974450949,-0.781145992428209,3,12,7,2,0
3,14,1,0.5,0.522288874984905,-0.849853644938288,0.00740587790798142,3,10,3,2,2
3,15,1,0.5,-0.910468905580404,-0.849853644938288,0.47492650950092,7,10,3,2,1
3,16,1,0.5,-0.217856139619923,-0.313103974450949,0.0210206130360797,3,8,3,1,2
3,17,1,0.5,-0.231436782089736,-0.313103974450949,1.04892343837689,7,8,3,1,0
3,18,1,0.5,0.0605470310112509,-0.313103974450949,-0.735852788401459,3,8,3,2,0
3,19,1,0.5,0.0130147823669042,-0.313103974450949,0.496857536956362,3,8,7,1,2
3,20,1,0.5,0.705627548327385,-0.313103974450949,0.841352794525685,7,12,7,2,2
3,21,1,0.5,0.352530844112238,-0.313103974450949,-0.294127496836717,3,12,7,2,1
3,22,1,0.5,2.17233693506723,-0.849853644938288,-0.119864977794758,3,10,3,2,1
3,23,1,0.5,-1.10059790015779,-0.849853644938288,1.28431416947413,7,10,7,1,2
3,24,1,0.5,-0.83577537199643,-0.313103974450949,-0.389682302397749,7,12,7,1,0
4,1,1,0.5,-0.00888346395525166,-0.0591726335413945,-0.259227866110141,3,8,7,2,1
4,2,1,0.5,2.30747976237662,-0.0591726335413945,-0.231018101597544,7,12,7,2,1
4,3,1,0.5,1.46799241860534,-0.0591726335413945,0.0837781866361154,3,8,3,2,2
4,4,1,0.5,0.81505781789434,-0.0591726335413945,-0.0703628478223156,7,8,7,1,1
4,5,1,0.5,0.370884620131757,-0.68048528572603,0.097652891332291,7,10,3,1,2
4,6,1,0.5,0.0954972375189553,3.66870327956642,0.19532366941705,7,10,3,1,1
4,7,1,0.5,-0.144356289272839,-0.68048528572603,0.222383620684664,3,10,3,1,2
4,9,1,0.5,-1.33029872729894,-0.0591726335413945,-0.179027777168693,7,8,3,2,0
4,10,1,0.5,-1.01271489089869,-0.0591726335413945,0.27309897035396,7,8,3,2,1
4,11,1,0.5,-0.424185403863267,-0.68048528572603,-0.201722758828407,3,10,3,2,0
4,12,1,0.5,0.21320313492604,-0.0591726335413945,0.0509816103947697,7,8,7,1,2
4,13,1,0.5,-0.684026724554378,-0.68048528572603,-0.0979366640479036,3,10,7,1,1
4,14,1,0.5,-0.746210972241139,-0.68048528572603,0.180968509361237,7,10,3,2,2
4,15,1,0.5,0.470823589628338,1.80476532301251,-0.133405204155666,3,12,3,1,1
4,16,1,0.5,0.262062186679924,-0.68048528572603,0.186237782845165,3,10,3,2,1
4,17,1,0.5,0.981622767055308,-0.0591726335413945,-0.0602387597629466,7,8,7,2,0
4,19,1,0.5,-1.1348625202834,-0.0591726335413945,-0.090248076052888,3,12,7,1,2
4,21,1,0.5,1.17927984005966,-0.68048528572603,0.12007347504126,3,10,3,1,0
4,22,1,0.5,-1.33029872729894,-0.0591726335413945,-0.0407070794834715,7,8,7,2,2
4,23,1,0.5,0.0444173197762583,-0.0591726335413945,-0.0622892581179517,3,12,7,1,0
4,24,1,0.5,-1.3924829749857,-0.0591726335413945,1.23838390844682,3,12,7,2,2
5,1,1,0.5,2.16756348179368,-0.395008187929654,-0.0585433029697838,7,8,7,2,2
5,2,1,0.5,1.08347567432217,-0.395008187929654,0.185196005926248,3,8,7,1,2
5,3,1,0.5,0.18792487684571,-0.395008187929654,-0.377911529490506,7,12,3,2,2
5,4,1,0.5,-0.532555839921067,0.371772412169085,-0.168328405321308,3,12,7,2,2
5,5,1,0.5,1.28547961360258,-0.6506017212959,0.249239859218909,3,10,7,2,1
5,7,1,0.5,0.807403623972285,-0.395008187929654,0.164455878786701,3,8,3,2,0
5,9,1,0.5,0.120590230418908,-0.395008187929654,-0.575163901722258,3,8,7,1,1
5,10,1,0.5,-0.956764112409917,-0.6506017212959,-0.874635715631041,7,10,3,1,2
5,11,1,0.5,2.44363553214356,2.6721142124653,-0.0931286038260972,3,12,3,1,1
5,12,1,0.5,0.369728422198074,2.6721142124653,0.59554476929841,7,12,3,1,1
5,13,1,0.5,0.107123301133548,-0.395008187929654,-0.0794547894821494,7,8,3,2,1
5,14,1,0.5,-0.24301686028582,-0.395008187929654,0.162630350503019,3,12,7,2,0
5,15,1,0.5,-0.357485759211383,-0.395008187929654,-0.0822401461767686,7,8,7,2,0
5,16,1,0.5,-1.07123301133548,-0.395008187929654,1.21206293211061,3,12,3,2,2
5,17,1,0.5,-1.165501516333,-0.6506017212959,-0.662932435312899,3,10,3,1,2
5,18,1,0.5,-0.559489698491788,1.13855301226782,0.137943984751256,3,10,3,1,0
5,19,1,0.5,-0.344018829926022,-0.6506017212959,0.845945415256392,7,10,7,2,1
5,20,1,0.5,-0.707625920630751,-0.6506017212959,0.309592479183169,3,10,7,1,0
5,21,1,0.5,-0.552756233849107,1.13855301226782,0.367446723566096,7,10,7,1,1
5,22,1,0.5,-0.822094819556314,-0.395008187929654,-0.061938947088549,7,8,7,1,2
5,23,1,0.5,-0.465221193494265,-0.395008187929654,0.223226484686134,7,12,7,1,0
5,24,1,0.5,-0.795160960985593,-0.395008187929654,-0.756833952782472,7,8,3,2,0
6,1,1,0.5,0.233148016104067,-0.401593372583645,-0.235601328730216,3,8,7,2,1
6,2,1,0.5,2.25361710552058,0.912712210417374,-0.276987424072324,7,12,3,2,1
6,3,1,0.5,0.111390490191631,0.912712210417374,-0.130988041432066,3,8,7,1,0
6,4,1,0.5,0.813702016469159,-0.401593372583645,-0.22018197535254,3,8,7,2,0
6,5,1,0.5,-0.336818373312119,-0.839695233583985,-0.0010006376522789,7,10,7,2,2
6,6,1,0.5,2.91004898435284,2.22701779341839,-0.36609841882424,7,10,3,1,1
6,7,1,0.5,-0.0915387196624291,-0.401593372583645,-0.166209760509227,3,8,3,1,2
6,8,1,0.5,0.0690400463960008,-0.401593372583645,-0.150827936129919,3,8,7,1,2
6,9,1,0.5,0.40784359676104,-0.401593372583645,-0.0974503492504352,7,12,7,1,0
6,10,1,0.5,-0.66503431272825,-0.839695233583985,0.14295570701498,7,10,7,1,2
6,11,1,0.5,-0.430342270027468,-0.401593372583645,-0.244281899728819,7,12,7,2,0
6,12,1,0.5,-0.864434318932674,-0.839695233583985,-0.100664753885152,3,10,7,2,2
6,13,1,0.5,-0.118007747034698,-0.401593372583645,-0.0300271598551957,3,8,3,1,0
6,14,1,0.5,1.42954805333061,-0.839695233583985,-0.225770533941895,3,10,3,2,0
6,15,1,0.5,-0.779733431341415,-0.401593372583645,-0.231328125060801,3,12,3,2,1
6,16,1,0.5,0.317848903695326,-0.401593372583645,-0.193747323515926,7,8,3,2,2
6,17,1,0.5,-1.05677591783783,0.912712210417374,0.250769166877241,3,12,7,1,1
6,18,1,0.5,-0.250352883896041,-0.401593372583645,0.152461966776461,3,12,3,2,2
6,19,1,0.5,-0.966781224772113,2.22701779341839,0.404597506289902,3,10,3,1,1
6,20,1,0.5,-0.91031396637794,2.22701779341839,-0.463947852147949,7,10,7,1,1
6,21,1,0.5,-0.403873242655199,-0.839695233583985,-0.243607120372334,7,10,3,1,0
6,22,1,0.5,-0.959722817472841,-0.401593372583645,0.879129383161029,7,12,3,1,2
6,23,1,0.5,-0.423283862728196,-0.401593372583645,0.249269613326159,7,8,7,2,1
6,24,1,0.5,-0.289174124042035,-0.401593372583645,0.283690653801698,7,12,3,2,0
7,1,1,0.5,1.46706724705617,-0.290957186981324,-0.766959784362331,7,8,7,2,2
7,2,1,0.5,3.76560498367291,-0.290957186981324,-0.928064123990122,3,8,7,1,2
7,3,1,0.5,0.939971510647681,-0.290957186981324,-0.414807587728676,7,12,3,2,2
7,4,1,0.5,0.085942975707351,-0.290957186981324,-0.210452652657791,3,12,7,2,2
7,6,1,0.5,-0.254334018682937,-0.290957186981324,0.510275153984858,7,8,3,1,0
7,7,1,0.5,-0.457833005524187,-0.290957186981324,0.092184366588243,3,8,3,2,0
7,8,1,0.5,-0.368871699801236,-0.290957186981324,-0.0463294609669822,3,8,3,2,1
7,9,1,0.5,0.065926681919687,-0.290957186981324,-0.203189388144202,3,8,7,1,1
7,10,1,0.5,-0.331063144868982,2.76409327632257,0.0309791309150492,7,10,3,1,2
7,12,1,0.5,-0.00524236265867385,1.23656804467062,-0.109971325842795,7,12,3,1,1
7,13,1,0.5,-0.510097772636421,-0.290957186981324,0.564692175449136,7,8,3,2,1
7,14,1,0.5,-0.472289217704167,-0.290957186981324,0.0440414207694561,3,12,7,2,0
7,15,1,0.5,-0.541234229639454,-0.290957186981324,0.610685351592471,7,8,7,2,0
7,16,1,0.5,-0.531226082745622,-0.290957186981324,0.195915418744538,3,12,3,2,2
7,17,1,0.5,-0.294366606258265,-0.800132264198639,-0.0835224890319091,3,10,3,1,2
7,19,1,0.5,-0.425584532199618,-0.800132264198639,-0.260561180453084,7,10,7,2,1
7,20,1,0.5,-0.446712842308818,-0.800132264198639,-0.0188953416217599,3,10,7,1,0
7,21,1,0.5,-0.430032597485765,2.76409327632257,0.0602638576348719,7,10,7,1,1
7,22,1,0.5,-0.401120173125806,-0.290957186981324,-0.109460038126692,7,8,7,1,2
7,23,1,0.5,-0.516769870565642,-0.290957186981324,-0.262345899714728,7,12,7,1,0
7,24,1,0.5,-0.337735242798203,-0.290957186981324,-0.103239434450163,7,8,3,2,0
8,1,1,0.5,1.74430280251217,-0.81401415689105,0.185763358613171,3,10,7,1,1
8,2,1,0.5,1.95922110775353,-0.222003860970287,0.159829916539653,3,8,3,2,0
8,3,1,0.5,1.11011763950489,-0.81401415689105,0.449184431337352,7,10,3,2,2
8,4,1,0.5,1.51881474455403,-0.81401415689105,0.137329234450833,7,10,3,2,0
8,5,1,0.5,0.070758622354054,-0.222003860970287,-0.0350942783355699,3,8,3,1,1
8,6,1,0.5,-0.0490319084362115,1.554027026792,-0.280392185087073,7,12,7,2,0
8,7,1,0.5,1.08193163226012,-0.222003860970287,0.085811430421105,7,8,7,1,1
8,8,1,0.5,1.17353615580562,-0.222003860970287,-0.00890351530278492,3,8,3,2,2
8,9,1,0.5,-1.06020491834228,-0.222003860970287,-0.955871933023485,3,8,7,1,2
8,10,1,0.5,-0.817100605856149,-0.222003860970287,-0.225675828846774,7,8,3,1,0
8,11,1,0.5,-0.891088874873666,-0.222003860970287,-0.122279290088505,3,8,7,1,0
8,12,1,0.5,0.204642156766704,-0.222003860970287,-0.0597357903445606,7,8,7,1,0
8,13,1,0.5,-0.426019755334988,-0.222003860970287,0.0617003112391372,7,8,3,1,1
8,14,1,0.5,-0.820623856761745,-0.222003860970287,0.132873938094887,3,12,7,2,2
8,15,1,0.5,-0.915751631212838,-0.81401415689105,-0.177900406090896,3,10,7,2,1
8,16,1,0.5,0.704943785361342,-0.222003860970287,0.504624086330279,7,12,7,2,2
8,17,1,0.5,0.641525269060613,3.3300579145543,0.448507108957862,7,10,7,2,1
8,18,1,0.5,-0.993263151135951,1.554027026792,-0.678601178769401,3,12,3,1,2
8,19,1,0.5,-0.140636431981709,-0.222003860970287,0.27975007920035,7,12,3,2,1
8,20,1,0.5,-1.05315841653108,-0.222003860970287,-0.155809656931403,3,12,3,1,0
8,21,1,0.5,-0.898135376684858,1.554027026792,-0.0246267069551653,7,8,7,1,2
8,22,1,0.5,-0.947460889363202,-0.81401415689105,-0.221228197547347,3,10,3,2,1
8,23,1,0.5,-0.95803064207999,-0.81401415689105,-0.0602206678336139,7,10,3,1,2
8,24,1,0.5,-0.239287457338398,-0.222003860970287,0.364423710721187,3,12,7,2,0
9,1,1,0.5,0.260359713264582,-0.375540841706121,0.0144445234937552,7,8,7,1,0
9,2,1,0.5,0.872162075787297,0.706016782407506,0.0788986769144636,3,8,7,1,2
9,3,1,0.5,0.0506971058832025,0.706016782407506,0.0878619199138244,3,12,3,2,2
9,4,1,0.5,0.229425885946018,-0.375540841706121,0.224998469280733,7,12,3,2,2
9,5,1,0.5,0.555949618753085,-0.375540841706121,0.0835973811021213,7,8,3,1,1
9,6,1,0.5,-0.45455540698668,-0.375540841706121,1.0781184462933,7,8,7,1,2
9,7,1,0.5,0.188180782854599,-0.736060049743996,0.0366973604197557,7,10,7,2,1
9,8,1,0.5,3.27468933086245,-0.375540841706121,0.196862831876216,3,8,7,2,2
9,9,1,0.5,0.0575712897317723,3.95068965474839,0.188958223231939,3,12,7,1,1
9,10,1,0.5,-0.433932855440971,0.706016782407506,0.137242767407188,7,12,3,1,0
9,11,1,0.5,1.06463922354725,-0.736060049743996,-0.130627316849645,3,10,3,2,0
9,12,1,0.5,-0.884191897522294,-0.375540841706121,-0.039359151214388,7,8,7,1,1
9,13,1,0.5,-0.976993379477987,0.706016782407506,0.0556632240929877,3,12,3,1,1
9,14,1,0.5,0.896221719257292,-0.375540841706121,0.138730568791142,3,8,3,1,0
9,15,1,0.5,-0.578290716260937,0.706016782407506,-0.18213453156145,7,8,3,2,1
9,16,1,0.5,-0.949496644083708,-0.375540841706121,-0.0194866456833787,3,12,3,2,1
9,17,1,0.5,-0.743271128626613,-0.736060049743996,0.112128765978496,7,10,3,2,0
9,18,1,0.5,-0.935748276386568,0.706016782407506,0.0746250531311378,3,12,7,1,0
9,19,1,0.5,0.384095022538839,-0.736060049743996,0.137003565470926,3,10,7,2,0
9,20,1,0.5,1.22618254398864,-0.375540841706121,0.115613228889098,3,12,3,1,2
9,21,1,0.5,-0.616098727428071,-0.375540841706121,-0.164896238774253,3,8,7,2,1
9,22,1,0.5,-0.66421801436806,-0.375540841706121,-0.0377954433135476,7,8,7,2,2
9,23,1,0.5,-1.21071563032936,-0.375540841706121,0.511065591988368,7,8,3,1,2
9,24,1,0.5,-0.612661635503786,-0.736060049743996,1.02533317499973,7,10,7,2,0
10,1,1,0.5,0.296138490004323,-0.435642635968827,0.245970559791191,7,12,3,1,2
10,2,1,0.5,-0.863279046458227,-0.91088914793482,0.414311467501372,7,10,3,1,0
10,3,1,0.5,-0.850710834680855,0.990096899929152,-0.155520665466325,7,12,7,1,1
10,4,1,0.5,0.726599743379308,-0.435642635968827,0.135288420565067,7,8,7,2,2
10,5,1,0.5,-0.0212088573743149,-0.435642635968827,0.26165632797553,7,12,7,2,1
10,6,1,0.5,1.78232953267854,0.990096899929152,0.0519673700502889,7,12,7,1,2
10,7,1,0.5,0.113899419232432,0.990096899929152,0.291926813664879,3,8,3,1,0
10,8,1,0.5,0.393542131278955,-0.91088914793482,0.157839906172823,3,10,7,1,2
10,9,1,0.5,-0.341698257697296,2.41583643582713,0.404749181488998,3,10,3,2,0
10,10,1,0.5,-0.401397263639812,-0.91088914793482,0.0918374853373125,7,10,3,2,0
10,11,1,0.5,-0.0777658103724881,0.990096899929152,0.14477466650129,7,8,7,2,0
10,12,1,0.5,0.73916795515668,-0.435642635968827,-0.0230141886318649,3,12,7,2,2
10,13,1,0.5,-0.674755869797649,-0.91088914793482,0.367703133628609,7,10,3,1,1
10,14,1,0.5,-0.995245270120631,-0.435642635968827,0.174086688607503,3,8,7,2,1
10,15,1,0.5,2.75008183953617,-0.91088914793482,-0.0477296072801726,7,10,7,1,0
10,16,1,0.5,0.54750272555176,-0.435642635968827,0.652395350569168,3,12,3,2,2
10,17,1,0.5,0.849139808208683,-0.435642635968827,0.318519153133968,3,8,3,2,1
10,18,1,0.5,-0.847568781736512,-0.435642635968827,0.814887982981856,3,12,3,1,2
10,19,1,0.5,-1.33772904105401,0.990096899929152,-0.205575552412148,3,12,7,1,1
10,20,1,0.5,0.054200413289916,2.41583643582713,0.349645912117346,3,10,7,2,0
10,21,1,0.5,-1.3440131469427,-0.435642635968827,0.169568402272817,7,12,3,2,1
10,22,1,0.5,1.07536762020138,-0.435642635968827,0.119509360516,3,8,7,1,0
10,23,1,0.5,-0.800437987571368,-0.435642635968827,-0.0893602023070682,3,8,3,1,1
10,24,1,0.5,-0.772159511072281,-0.435642635968827,0.0809916881664664,7,8,3,2,2
12,1,1,0.5,1.63379658227562,-0.0687084700658151,-0.627402544812865,7,8,7,2,2
12,2,1,0.5,1.03887795843342,-0.0687084700658151,0.0575684965246829,3,8,7,1,2
12,3,1,0.5,0.997957629809359,-0.0687084700658151,-0.430065073857312,7,12,3,2,2
12,4,1,0.5,1.58343310089215,-0.0687084700658151,-0.0158481270931401,3,12,7,2,2
12,5,1,0.5,-0.558588716698391,-0.893210110855586,-0.157613935308192,3,10,7,2,1
12,6,1,0.5,0.946020289632659,-0.0687084700658151,-0.357545700386499,7,8,3,1,0
12,7,1,0.5,1.61018870037712,-0.0687084700658151,-0.0240234359026217,3,8,3,2,0
12,8,1,0.5,0.340084654237832,-0.0687084700658151,0.223186308759126,3,8,3,2,1
12,9,1,0.5,0.333789219064899,-0.0687084700658151,-0.822483387130354,3,8,7,1,1
12,10,1,0.5,0.920838548940926,-0.893210110855586,-0.0321561132385344,7,10,3,1,2
12,11,1,0.5,0.90352610221536,2.4047964523035,0.0357971285245859,3,12,3,1,1
12,12,1,0.5,-0.234373805292328,2.4047964523035,-0.534539084508329,7,12,3,1,1
12,13,1,0.5,-1.11416087070975,-0.0687084700658151,0.699498047397287,7,8,3,2,1
12,14,1,0.5,-0.324083756506627,-0.0687084700658151,-0.105370361708173,3,12,7,2,0
12,15,1,0.5,-0.621543068427724,-0.0687084700658151,-0.438877129821383,7,8,7,2,0
12,16,1,0.5,0.417203735106265,-0.0687084700658151,-0.612734754578769,3,12,3,2,2
12,17,1,0.5,-0.659315679465324,-0.893210110855586,-0.324503956587372,3,10,3,1,2
12,18,1,0.5,-0.846604875860088,-0.893210110855586,-1.03639793694094,3,10,3,1,0
12,19,1,0.5,-1.26997289123985,-0.893210110855586,0.39845398884964,7,10,7,2,1
12,20,1,0.5,-1.03074635466839,-0.893210110855586,0.461834233917179,3,10,7,1,0
12,21,1,0.5,-0.819849276375122,-0.893210110855586,0.786436612244028,7,10,7,1,1
12,22,1,0.5,-0.936314827074387,-0.0687084700658151,-0.430001036227615,7,8,7,1,2
12,23,1,0.5,-0.99454760242402,2.4047964523035,-0.0887238233467415,7,12,7,1,0
12,24,1,0.5,-1.31561479624362,-0.0687084700658151,0.223455377850975,7,8,3,2,0
13,1,1,0.5,0.786978041941942,3.07487454701057,0.10649821686869,7,10,7,1,1
13,2,1,0.5,0.495618884396345,-0.229468249776909,0.0651645496344478,3,8,3,1,1
13,3,1,0.5,-0.376146213974209,1.42270314861683,-0.156092711106319,3,12,7,1,0
13,4,1,0.5,0.958093737643324,-0.229468249776909,0.0541496694977036,3,8,7,2,1
13,5,1,0.5,1.40669434529289,-0.229468249776909,0.0605074178691201,7,12,3,1,2
13,6,1,0.5,0.810101784604291,-0.780192049241489,0.227329984732449,7,10,3,2,2
13,7,1,0.5,1.27951376064997,-0.780192049241489,-0.120630904313626,3,10,3,2,2
13,8,1,0.5,1.39744484822795,1.42270314861683,0.0215207813642741,7,12,3,1,1
13,9,1,0.5,0.49793125866258,1.42270314861683,0.0399553035796819,3,12,7,2,2
13,10,1,0.5,0.523367375591164,-0.780192049241489,0.408742041038859,3,10,7,2,0
13,11,1,0.5,0.375375422552131,-0.229468249776909,0.00364130319254235,7,12,3,1,0
13,12,1,0.5,1.19164353853305,-0.229468249776909,0.0376433288677413,7,12,7,2,2
13,13,1,0.5,0.363813551220956,-0.229468249776909,-0.05810553575799,3,8,3,2,0
13,14,1,0.5,-0.850182938552362,-0.780192049241489,-0.032959992802854,3,10,3,2,1
13,15,1,0.5,-1.11379360490314,-0.229468249776909,0.433786254984598,3,8,3,1,2
13,16,1,0.5,0.449371399071647,-0.780192049241489,-0.0194311314912897,7,10,7,1,2
13,17,1,0.5,0.0886410135390041,-0.229468249776909,-0.143094207899051,7,12,3,2,1
13,18,1,0.5,-1.7011366685268,-0.780192049241489,0.352377226331927,3,10,3,1,0
13,19,1,0.5,-0.998174891591396,-0.229468249776909,-0.0528194674362925,7,8,7,1,0
13,20,1,0.5,-0.713752856844504,1.42270314861683,-0.101328483352231,3,12,7,1,1
13,21,1,0.5,-1.05367187398103,-0.780192049241489,-0.0360426247311636,3,10,7,1,2
13,22,1,0.5,-1.33809390872792,-0.229468249776909,-0.0243767140379166,7,12,7,2,1
13,23,1,0.5,-1.4490878735072,-0.780192049241489,-0.0196158745544308,7,10,7,2,0
13,24,1,0.5,-1.03054813131868,-0.229468249776909,-0.0157009685987656,7,8,3,2,0
14,2,1,0.5,-0.315219554572394,-0.268182305786454,4.52704068573911,3,8,7,1,2
14,3,1,0.5,1.56452084710522,1.50182091240414,5.91297833419756,7,12,7,2,2
14,4,1,0.5,0.895953384652873,-0.858183378516652,8.02442091536452,7,10,3,1,1
14,10,1,0.5,-0.765083789141779,1.50182091240414,3.57134675825103,3,12,3,1,2
14,11,1,0.5,-0.994860598183372,-0.268182305786454,0.909101118753819,7,8,7,2,1
14,16,1,0.5,-0.456407714344939,-0.268182305786454,3.11066241807858,7,12,7,1,1
14,17,1,0.5,-0.665421558714099,-0.858183378516652,4.12926911752971,7,10,7,2,0
14,19,1,0.5,0.513914834680103,-0.268182305786454,3.38198068597359,7,8,3,2,2
14,20,1,0.5,-0.986555412314399,1.50182091240414,8.77172709074837,3,12,3,1,1
14,22,1,0.5,1.71262999510191,-0.858183378516652,7.05240684649617,7,10,3,1,0
14,24,1,0.5,-0.503470434269121,-0.858183378516652,5.41071556196922,7,10,7,1,2
15,1,1,0.5,1.08278858340077,-0.715491385636572,-0.187597009920037,3,8,7,2,2
15,2,1,0.5,0.64626485667867,0.946295058422562,-0.486581994465821,3,10,7,1,0
15,3,1,0.5,2.21932333135292,0.115401836392995,-0.0437497583887142,3,12,3,2,0
15,4,1,0.5,1.31874735460191,0.115401836392995,0.275466581363057,3,12,3,1,0
15,5,1,0.5,0.249067591823422,0.115401836392995,-0.725394161553422,7,12,7,1,1
15,6,1,0.5,2.44741681018068,-0.99245579297976,-0.241066143247793,3,10,3,1,2
15,7,1,0.5,-0.671171615861012,-0.715491385636572,0.202880310596953,7,8,3,1,0
15,8,1,0.5,-0.710498077727868,2.6080815024817,-0.0510510595530111,3,12,7,1,1
15,9,1,0.5,1.01593359822712,-0.715491385636572,-0.0754750503684497,3,8,7,1,2
15,10,1,0.5,-0.226782596765537,0.946295058422562,0.425977730640721,7,10,3,2,0
15,11,1,0.5,0.103559682916055,-0.715491385636572,-0.14084054675524,3,8,7,2,0
15,12,1,0.5,0.426036670224275,-0.715491385636572,-0.5488272200884,7,8,3,1,2
15,13,1,0.5,-0.0340829336179419,-0.715491385636572,0.0994626815962944,7,8,7,1,2
15,14,1,0.5,-0.970052726049118,0.115401836392995,0.579328382384759,3,12,3,2,2
15,15,1,0.5,-1.1116279887698,0.115401836392995,-0.398548839694443,7,12,3,2,2
15,16,1,0.5,-0.66330632348764,0.115401836392995,-0.292151882108356,3,12,7,2,1
15,17,1,0.5,-0.541394291700386,2.6080815024817,-0.10515486736727,3,12,3,1,1
15,18,1,0.5,-1.02117712647603,0.115401836392995,0.540908982764854,7,12,7,2,2
15,19,1,0.5,-0.266109058632393,-0.715491385636572,0.766567741632953,7,8,7,2,0
15,20,1,0.5,-0.596451338313985,-0.715491385636572,-0.916200315650684,7,8,3,2,1
15,21,1,0.5,-0.616114569247413,-0.715491385636572,-0.644313014348097,3,8,3,2,1
15,22,1,0.5,-0.293637581939192,0.946295058422562,0.157138660611318,7,10,7,2,1
15,23,1,0.5,-0.793083647648266,-0.715491385636572,0.32034386190369,7,8,3,1,1
15,24,1,0.5,-0.993648603169232,-0.715491385636572,0.446253630370065,7,8,7,1,0
16,1,1,0.5,-0.0767076766725516,-0.300796416641907,-0.20952230659844,3,12,7,2,2
16,2,1,0.5,-0.0369333258053026,-0.300796416641907,-0.204358428258845,3,8,7,1,2
16,3,1,0.5,1.44202314929934,-0.300796416641907,-0.203599764373608,7,12,7,2,2
16,4,1,0.5,-0.737448933936647,1.76180758318831,-0.402977682005792,7,10,3,1,1
16,5,1,0.5,-0.0734607908874701,-0.300796416641907,-0.61846754059744,3,12,3,2,1
16,6,1,0.5,0.620561045673711,-0.300796416641907,-0.156581955423847,7,8,3,2,1
16,7,1,0.5,-0.0109582395246502,-0.300796416641907,-0.235500401959317,7,8,3,2,0
16,8,1,0.5,-0.339705425264157,-0.644563749946943,-0.0308845052412775,3,10,7,2,1
16,9,1,0.5,-0.334023375140264,-0.300796416641907,-0.461159719125098,3,8,3,1,0
16,10,1,0.5,-1.01181078277604,0.730505583273202,-0.796644575835854,3,12,3,1,2
16,11,1,0.5,2.18961860131437,-0.300796416641907,-0.4802447760964,7,8,7,2,1
16,12,1,0.5,-0.677381546912638,-0.644563749946943,0.0752162341371694,7,10,3,1,2
16,13,1,0.5,0.749624755630703,-0.300796416641907,-0.464676394979649,3,8,7,2,0
16,14,1,0.5,-0.898981501744454,0.730505583273202,-0.0227721148355514,3,12,3,2,2
16,15,1,0.5,-0.22038237266241,-0.644563749946943,-0.276303183639623,3,10,7,1,0
16,16,1,0.5,0.573481201790029,3.82441158301853,-0.218908775413269,7,12,7,1,1
16,17,1,0.5,0.221194094108681,-0.644563749946943,-0.238858923411072,7,10,7,2,0
16,18,1,0.5,-0.839725836166716,-0.300796416641907,-0.662472057115286,7,12,7,1,0
16,19,1,0.5,-0.0702139051023885,-0.300796416641907,-0.364896896135583,7,8,3,2,2
16,20,1,0.5,-0.574292923236299,0.730505583273202,-0.128649668520904,3,12,3,1,1
16,21,1,0.5,2.82925510097544,-0.300796416641907,-0.468710983594348,3,12,3,2,0
16,22,1,0.5,-0.585657023484085,-0.644563749946943,0.0205979191047618,7,10,3,1,0
16,23,1,0.5,-1.0183045543462,-0.300796416641907,-0.234410032697938,3,8,7,1,1
16,24,1,0.5,-1.11976973513,-0.644563749946943,-0.365963672969779,7,10,7,1,2
17,1,1,0.5,1.15396500324483,-0.25993450567827,-0.0848719212912379,3,8,7,2,1
17,2,1,0.5,2.26490879391686,1.07687152352426,-0.022824488354341,7,12,7,2,1
17,3,1,0.5,0.419764882326164,-0.25993450567827,0.0272512051359245,3,8,3,2,2
17,4,1,0.5,1.66186175939697,-0.25993450567827,0.318167658653558,7,8,7,1,1
17,5,1,0.5,-0.633317252581696,-0.705536515412446,0.544142110678909,7,10,3,1,2
17,6,1,0.5,0.574062631030612,2.41367755272679,-0.0604241159170649,7,10,3,1,1
17,7,1,0.5,-0.818474551027034,-0.705536515412446,0.533488892323655,3,10,3,1,2
17,8,1,0.5,-0.94705600828074,-0.705536515412446,0.679622108491974,3,10,7,2,0
17,9,1,0.5,-1.19264659163532,-0.25993450567827,0.679700380336877,7,8,3,2,0
17,10,1,0.5,1.63228802422862,-0.25993450567827,0.431328417470503,7,8,3,2,1
17,11,1,0.5,-0.875050392218665,-0.705536515412446,-0.0287897659589428,3,10,3,2,0
17,12,1,0.5,-0.68860727920079,-0.25993450567827,0.507938557008513,7,8,7,1,2
17,13,1,0.5,0.620351955641947,-0.705536515412446,-0.0450000249572506,3,10,7,1,1
17,14,1,0.5,-0.76318452440794,-0.705536515412446,0.0430634045792578,7,10,3,2,2
17,15,1,0.5,-0.148565158735221,-0.25993450567827,0.157943263282003,3,12,3,1,1
17,16,1,0.5,-0.692464722918401,-0.705536515412446,0.574818146329955,3,10,3,2,1
17,17,1,0.5,-0.00583974118360595,-0.25993450567827,0.175457166343462,7,8,7,2,0
17,18,1,0.5,-0.299005463722058,2.41367755272679,0.211296138653972,7,10,3,1,0
17,19,1,0.5,1.0523856520144,-0.25993450567827,0.410798779343943,3,12,7,1,2
17,20,1,0.5,-0.439159252128598,-0.25993450567827,0.183081703914605,7,8,7,1,0
17,21,1,0.5,-0.884051094226424,2.41367755272679,1.26073376491929,3,10,3,1,0
17,22,1,0.5,0.826082287247878,-0.25993450567827,0.177139285910404,7,8,7,2,2
17,23,1,0.5,-0.929054604265221,-0.25993450567827,0.767428265852389,3,12,7,1,0
17,24,1,0.5,-0.889194352516572,-0.25993450567827,0.486521676685597,3,12,7,2,2
18,1,1,0.5,2.06919839577808,0.295163026345123,-0.0516862928513314,7,12,3,1,1
18,2,1,0.5,0.199849867580136,-0.885489079035371,-0.0835454961719982,3,10,7,1,1
18,3,1,0.5,-0.0765580771875939,-0.885489079035371,0.13398418279918,7,10,3,2,2
18,4,1,0.5,1.84232019833867,0.295163026345123,-0.0713987774792786,3,8,7,1,2
18,5,1,0.5,0.599283313776277,3.83711934248661,-0.313597898017161,3,12,3,1,1
18,6,1,0.5,0.985934889694142,0.295163026345123,-0.397960887594462,3,12,3,2,0
18,7,1,0.5,0.0256968850386183,0.295163026345123,-0.252201655629419,7,8,7,1,1
18,8,1,0.5,-0.599017024812147,0.295163026345123,-0.0309884932465477,7,12,3,1,2
18,9,1,0.5,-0.848263495238539,0.295163026345123,0.243409123098576,3,8,3,1,0
18,10,1,0.5,-0.490371127446796,-0.885489079035371,-0.129432953116247,7,10,3,2,1
18,11,1,0.5,-0.298643073272648,-0.885489079035371,0.21642885721802,3,10,7,2,1
18,12,1,0.5,0.695147340863351,0.295163026345123,0.0808877117331665,7,8,3,2,0
18,13,1,0.5,0.01930594989948,-0.885489079035371,-0.285833082823984,3,10,3,2,2
18,14,1,0.5,0.271747887895441,-0.885489079035371,-0.416994255458502,7,10,7,2,1
18,15,1,0.5,-1.00004820479307,0.295163026345123,0.249624558173808,7,12,7,2,0
18,16,1,0.5,-1.03999154941269,-0.885489079035371,0.738140882893574,3,10,3,2,1
18,17,1,0.5,2.36477914596322,-0.885489079035371,-0.36630643242304,7,10,7,2,2
18,18,1,0.5,-0.229940520526912,0.295163026345123,-0.128400112909091,3,12,7,2,2
18,19,1,0.5,-0.522325803142488,0.295163026345123,0.350150766779135,7,8,7,1,0
18,20,1,0.5,-0.43924364633369,0.295163026345123,0.0376469900587012,3,8,3,1,2
18,21,1,0.5,-1.18858079139765,0.295163026345123,0.585843110626358,3,8,7,1,0
18,22,1,0.5,-1.193373992752,0.295163026345123,0.07419992231207,3,8,7,2,0
18,23,1,0.5,-0.189997175907298,0.295163026345123,0.0987631725798704,7,8,3,1,0
18,24,1,0.5,-0.956909392603889,-0.885489079035371,-0.014138309744805,7,10,7,1,2
19,1,1,0.5,1.06182546496613,-0.978945010372561,-0.141220985985477,3,10,7,2,2
19,2,1,0.5,-0.215589337084942,1.6315750172876,0.00192340851649898,7,12,7,2,0
19,3,1,0.5,2.63505186781269,-0.326315003457521,-0.156087617735023,7,12,7,2,1
19,4,1,0.5,2.63300472870684,-0.326315003457521,0.0311591375207272,3,12,3,2,0
19,5,1,0.5,-0.370148339576699,1.6315750172876,0.169936244033791,3,12,7,1,1
19,6,1,0.5,0.0239259382996345,-0.326315003457521,0.0838588758776563,3,12,3,1,0
19,7,1,0.5,0.334067512836073,-0.326315003457521,-0.0188234355393972,7,8,3,1,1
19,8,1,0.5,-0.673124927242658,1.6315750172876,-0.244639713603906,7,12,3,1,0
19,9,1,0.5,-0.332276266118454,-0.978945010372561,0.151184611944245,3,10,3,2,2
19,10,1,0.5,-0.217636476190793,-0.978945010372561,0.0817262461416917,7,10,3,2,2
19,11,1,0.5,1.39755627832571,-0.326315003457521,0.0136819920887923,7,8,7,1,2
19,12,1,0.5,0.455872289634213,-0.326315003457521,-0.0647022555936118,7,12,3,1,2
19,13,1,0.5,-0.0241818306878659,-0.326315003457521,-0.171539703020489,3,8,3,1,2
19,14,1,0.5,-0.201259363343984,-0.326315003457521,0.223043932172763,3,8,3,1,1
19,15,1,0.5,-0.686431331430691,1.6315750172876,0.373506724648143,3,12,7,1,0
19,16,1,0.5,-0.707926292042127,-0.326315003457521,0.0958426676555967,7,8,3,2,1
19,17,1,0.5,-0.729421252653563,-0.978945010372561,0.0475009074251855,7,10,7,1,0
19,18,1,0.5,-0.517542355197976,-0.326315003457521,0.0571581463995738,3,12,7,2,1
19,19,1,0.5,-0.954606554297182,1.6315750172876,0.513572591258369,7,12,7,1,1
19,20,1,0.5,-0.0159932742644616,-0.978945010372561,0.137307484815729,7,10,7,2,2
19,21,1,0.5,-0.869650281404362,-0.326315003457521,-0.0578358768009296,7,12,3,2,0
19,22,1,0.5,-0.54415516357404,-0.326315003457521,0.0433848661504019,3,12,7,2,0
19,23,1,0.5,-0.575885819714732,1.6315750172876,0.407001773236422,3,12,7,1,2
19,24,1,0.5,-0.905475215756756,-0.978945010372561,0.373640147395233,3,10,3,2,1
20,1,1,0.5,0.0920476412209141,-0.599979131523567,0.627869406558364,7,10,3,1,2
20,2,1,0.5,1.42930688743486,-0.279990261377665,0.787609182418563,3,12,3,1,2
20,3,1,0.5,-0.670989819035713,-0.279990261377665,0.153565985470426,3,12,3,2,0
20,4,1,0.5,0.589632477021451,-0.599979131523567,0.938070228175666,3,10,7,1,2
20,5,1,0.5,0.771784068698434,1.63994295949775,1.30727548013304,7,10,3,1,0
20,6,1,0.5,0.582968394399123,-0.599979131523567,1.22179023391591,3,10,7,1,1
20,7,1,0.5,0.0187427323752992,1.63994295949775,0.639461676014049,3,10,7,1,0
20,8,1,0.5,1.27270094581013,0.679976349060042,0.000751129335163581,7,12,3,1,1
20,9,1,0.5,0.30529828513543,-0.599979131523567,1.05824812486339,3,10,3,1,1
20,10,1,0.5,2.72991367922599,-0.279990261377665,1.71091969382322,3,12,3,2,2
20,11,1,0.5,-0.673211179909823,-0.279990261377665,0.384228234379186,3,8,3,1,0
20,12,1,0.5,0.100933084717352,-0.279990261377665,1.32893127080687,3,8,3,2,1
20,13,1,0.5,0.648498540185354,-0.599979131523567,0.400053141944131,7,10,7,1,0
20,14,1,0.5,0.485228515938303,-0.279990261377665,0.20078980510372,3,8,7,2,1
20,15,1,0.5,0.785112233943091,-0.599979131523567,0.590632941028975,7,10,3,2,1
20,16,1,0.5,-1.04639980676023,3.55987618037316,0.747861025796456,7,12,7,1,1
20,17,1,0.5,-1.11637267429468,0.679976349060042,-0.060132335943497,7,12,7,2,1
20,18,1,0.5,-0.887572504261393,-0.279990261377665,0.17368889328413,7,12,3,2,2
20,19,1,0.5,-0.812046234541669,-0.279990261377665,0.211569228307863,7,12,7,1,2
20,20,1,0.5,-1.06639205462721,-0.279990261377665,1.09826037047568,7,12,3,2,0
20,21,1,0.5,-1.04862116763433,-0.599979131523567,1.84421559064637,7,10,7,2,2
20,22,1,0.5,-1.15635717002865,-0.279990261377665,0.245423648703331,3,8,7,2,0
20,23,1,0.5,-0.492170268669895,-0.599979131523567,0.439995367009166,3,10,7,2,2
20,24,1,0.5,-0.842034606342148,-0.599979131523567,0.775929762451227,7,10,7,2,0
21,1,1,0.5,1.48226186016653,-0.435494170355693,-0.84721715269849,3,12,7,2,2
21,2,1,0.5,1.35116110599867,-0.435494170355693,0.696521682010112,3,8,7,1,2
21,3,1,0.5,0.593690081917666,-0.435494170355693,0.296949307062492,7,12,7,2,2
21,4,1,0.5,1.70367646720559,2.17747085177846,0.889178177036848,7,10,3,1,1
21,5,1,0.5,1.64249611526059,-0.435494170355693,-0.407248284601922,3,12,3,2,1
21,6,1,0.5,1.73280996813178,-0.435494170355693,0.520646999182294,7,8,3,2,1
21,7,1,0.5,-0.830938113373136,-0.435494170355693,0.822672137965943,7,8,3,2,0
21,8,1,0.5,-0.868811664577186,2.17747085177846,-0.080779861435091,3,10,7,2,1
21,9,1,0.5,0.748097636826485,-0.435494170355693,0.493375481888496,3,8,3,1,0
21,10,1,0.5,-0.0122867373471331,-0.435494170355693,0.153422813812438,3,12,3,1,2
21,11,1,0.5,0.0314135140421553,-0.435494170355693,-0.22020662004416,7,8,7,2,1
21,12,1,0.5,-0.428895800591682,-0.870988340711385,0.222554094820196,7,10,3,1,2
21,13,1,0.5,-0.297795046423817,-0.435494170355693,-0.0277060467108862,3,8,7,2,0
21,14,1,0.5,-0.70275070929789,-0.435494170355693,1.8353298076954,3,12,3,2,2
21,15,1,0.5,-0.679443908556936,-0.870988340711385,-0.985163027773642,3,10,7,1,0
21,16,1,0.5,-0.423069100406444,0.870988340711385,1.98626767044321,7,12,7,1,1
21,17,1,0.5,-0.676530558464317,-0.870988340711385,0.183020896601885,7,10,7,2,0
21,18,1,0.5,0.520856329602185,-0.435494170355693,0.504844163847437,7,12,7,1,0
21,19,1,0.5,-1.04943937031958,0.870988340711385,-1.68489117919056,7,8,3,2,2
21,21,1,0.5,-1.08148622133839,0.870988340711385,-0.133894595848009,3,12,3,2,0
21,22,1,0.5,-1.11061972226458,2.17747085177846,1.56183112026299,7,10,3,1,0
21,23,1,0.5,-0.714404109668367,-0.435494170355693,1.56214612469155,3,8,7,1,1
21,24,1,0.5,-0.929992016522189,-0.870988340711385,-0.506209236681199,7,10,7,1,2
22,1,1,0.5,0.0951742196796061,-0.419322312840655,-2.09454001544606,7,8,7,1,1
22,2,1,0.5,0.408982923028798,1.0273396664596,2.92496785614975,3,12,7,2,2
22,3,1,0.5,3.29831915508538,1.0273396664596,1.06363483980163,3,12,3,1,0
22,4,1,0.5,-0.28751932099014,-0.419322312840655,2.01946326707005,3,8,3,1,2
22,5,1,0.5,0.183193734033648,-0.419322312840655,-3.5521584467479,7,12,3,1,1
22,6,1,0.5,-0.670212861659885,-0.419322312840655,0.463887701116027,7,8,7,2,2
22,7,1,0.5,0.711310820157897,-0.901542972607407,0.648184787039539,7,10,3,2,0
22,8,1,0.5,-0.773540117640717,-0.419322312840655,-2.47240774217811,7,12,3,2,1
22,9,1,0.5,-0.624289636779516,1.0273396664596,-0.258863140686109,7,12,7,1,2
22,10,1,0.5,1.23560097087545,2.47400164575986,-1.23048712117237,3,10,3,1,1
22,11,1,0.5,0.0377701885791443,-0.419322312840655,-0.882258242500633,7,8,3,1,0
22,12,1,0.5,-0.0502493257748972,-0.901542972607407,0.347050517269922,3,10,3,2,0
22,13,1,0.5,0.477867760349352,-0.419322312840655,-1.19291558525685,7,8,7,1,0
22,14,1,0.5,-1.19067607697074,-0.419322312840655,0.560284023142947,3,8,3,2,2
22,15,1,0.5,1.12844677948792,-0.419322312840655,1.14705390407916,3,12,7,2,0
22,16,1,0.5,-0.448250608071433,2.47400164575986,1.3627504507327,7,10,7,2,1
22,17,1,0.5,-1.08734882098991,-0.419322312840655,1.32773552395955,7,8,3,1,2
22,18,1,0.5,0.864388236425795,1.0273396664596,-0.200087959699841,3,12,3,2,1
22,19,1,0.5,-0.635770442999608,-0.901542972607407,-0.102808031488822,3,10,7,1,2
22,21,1,0.5,-0.727616892760347,-0.901542972607407,2.79131408124346,7,10,7,2,0
22,22,1,0.5,-0.90365592146843,-0.419322312840655,-1.40776857196938,7,8,3,2,2
22,23,1,0.5,-0.597501088932634,-0.419322312840655,1.15268766138196,3,12,7,2,1
22,24,1,0.5,-0.444423672664735,-0.419322312840655,1.135767356613,3,8,7,1,1
1,1,1,1,2.28434771725881,-0.255609437163093,-0.137239801285436,7,8,3,1,0
1,3,1,1,-0.171026510066587,-0.843511142638205,-0.0900136230228953,3,10,3,1,1
1,4,1,1,1.60070853734751,1.50809567926225,-0.0279551609874603,3,12,3,1,2
1,5,1,1,-0.385782273389508,-0.255609437163093,0.751560815466988,7,12,3,1,2
1,6,1,1,0.0186744142019933,-0.255609437163093,-0.230450157365937,7,12,3,2,0
1,7,1,1,-0.0672278911271752,-0.255609437163093,0.0672468028877483,7,12,7,2,0
1,8,1,1,-0.471684578718677,-0.255609437163093,-0.004588725585425,3,12,3,2,0
1,9,1,1,-0.428733426054093,-0.255609437163093,0.0167851693845145,3,8,7,2,0
1,10,1,1,-0.740129282872328,-0.255609437163093,1.40739007237202,7,8,3,2,2
1,11,1,1,-0.840348639089692,-0.843511142638205,0.199129364990348,7,10,7,1,1
1,12,1,1,-0.718653706540036,-0.255609437163093,0.556266400224556,7,8,7,1,0
1,13,1,1,-0.16386798462249,1.50809567926225,0.12214561566678,3,12,7,1,0
1,14,1,1,-0.919092418974763,-0.255609437163093,-0.0154022380540295,7,8,3,1,1
1,15,1,1,1.10677028170479,-0.843511142638205,0.0979904141293788,3,10,7,1,2
1,16,1,1,0.240588702969012,-0.843511142638205,0.524289757800058,3,10,7,2,2
1,17,1,1,2.69954219301646,1.50809567926225,0.125522626989376,7,12,7,1,2
1,18,1,1,0.430289627237592,-0.255609437163093,0.110359180863155,7,8,7,2,1
1,19,1,1,-0.679281816597501,-0.255609437163093,0.68639629591346,7,8,3,2,1
1,20,1,1,-0.546849095881699,-0.843511142638205,0.441657021781703,7,10,7,2,2
1,21,1,1,-0.443050476942287,-0.255609437163093,0.139460547706597,3,8,3,2,2
1,22,1,1,-0.29987996806034,-0.255609437163093,0.10651702523302,3,8,3,2,1
1,23,1,1,-0.589800248546284,3.27180079568758,0.281059523717163,3,10,3,1,0
1,24,1,1,-0.915513156252714,-0.255609437163093,0.200228152619217,3,8,7,1,1
2,1,1,1,0.464088670255891,-0.420558293861036,-0.00365798165406031,7,12,3,1,2
2,2,1,1,1.02587331658995,1.53300281310635,0.0542980293549961,7,10,3,1,0
2,3,1,1,0.830743635510334,3.48656392007375,-0.0533578460049946,7,12,7,1,1
2,4,1,1,1.23673926227276,-0.420558293861036,0.0145079045685895,7,8,7,2,2
2,5,1,1,-0.0221619059828328,-0.420558293861036,-0.129868746907876,7,12,7,2,1
2,6,1,1,0.674954615938704,0.556222259622659,0.120850466884285,7,12,7,1,2
2,7,1,1,1.43029531689206,-0.420558293861036,0.352089476443532,3,8,3,1,0
2,8,1,1,1.83943819657513,-0.746151811688934,0.148093658653196,3,10,7,1,2
2,9,1,1,0.0816974403982539,-0.746151811688934,-0.193091819211598,3,10,3,2,0
2,10,1,1,-0.402979509380151,-0.746151811688934,0.08049151114137,7,10,3,2,0
2,11,1,1,-0.0945487231575296,-0.420558293861036,0.054087230024863,7,8,7,2,0
2,12,1,1,0.169820522176146,0.556222259622659,-0.00666701058333667,3,12,7,2,2
2,13,1,1,-0.989942179079322,1.53300281310635,0.152344645968408,7,10,3,1,1
2,14,1,1,1.68050192408286,-0.420558293861036,0.229385701691267,3,8,7,2,1
2,15,1,1,-1.0607553697937,-0.746151811688934,0.0145053627739063,7,10,7,1,0
2,16,1,1,-0.612271828602644,-0.420558293861036,-0.0591091847453885,3,12,3,2,2
2,17,1,1,0.475104055478128,0.556222259622659,0.216219604199239,3,8,3,2,1
2,18,1,1,-0.115005867141683,-0.420558293861036,-0.0422864285620943,3,12,3,1,2
2,19,1,1,-0.706689416221813,0.556222259622659,-0.0732481338405925,3,12,7,1,1
2,20,1,1,-1.42268945566718,-0.746151811688934,-0.20861173492382,3,10,7,2,0
2,21,1,1,-0.635876225507436,-0.420558293861036,-0.0105478202300095,7,12,3,2,1
2,22,1,1,-1.38649604707984,-0.420558293861036,0.196246369885291,3,8,7,1,0
2,23,1,1,-1.20080812476213,-0.420558293861036,0.215363437582552,3,8,3,1,1
2,24,1,1,-1.25903230379396,-0.420558293861036,0.146309712886896,7,8,3,2,2
3,1,1,1,3.2587883326523,-0.313103974450949,-0.537234552606163,7,8,3,2,0
3,2,1,1,0.338950201642425,1.29714503701107,0.891814704174152,3,8,3,1,0
3,3,1,1,0.773530760676452,-0.313103974450949,-0.321244213920412,3,8,7,2,2
3,4,1,1,-0.231436782089736,1.29714503701107,3.17228610159296,7,8,3,1,1
3,5,1,1,-0.557372201365257,-0.313103974450949,-0.264102979530704,7,8,7,1,1
3,6,1,1,-0.163533569740669,2.90739404847309,1.05136842674286,7,10,7,2,1
3,7,1,1,-0.38761417049259,-0.849853644938288,1.55909596210027,7,10,3,1,2
3,8,1,1,-0.28575935196899,1.29714503701107,0.564489846939021,7,8,7,2,0
3,9,1,1,-0.143162606035949,1.29714503701107,1.15087914321475,3,12,7,1,1
3,10,1,1,-0.808614087056804,-0.849853644938288,1.66836143045617,7,10,3,2,2
3,11,1,1,-0.964791475459657,-0.849853644938288,0.669505112374172,3,10,7,1,0
3,12,1,1,-0.849356014466244,1.29714503701107,0.857283105819361,3,12,3,1,1
3,13,1,1,-0.50983995272091,-0.313103974450949,-0.774531846623999,3,12,7,2,0
3,14,1,1,0.522288874984905,-0.849853644938288,-0.0148985195715338,3,10,3,2,2
3,15,1,1,-0.910468905580404,-0.849853644938288,0.541597623539109,7,10,3,2,1
3,16,1,1,-0.217856139619923,-0.313103974450949,0.042065531858376,3,8,3,1,2
3,17,1,1,-0.231436782089736,-0.313103974450949,1.13688987105699,7,8,3,1,0
3,18,1,1,0.0605470310112509,-0.313103974450949,-0.712191811798083,3,8,3,2,0
3,19,1,1,0.0130147823669042,-0.313103974450949,0.472459088693912,3,8,7,1,2
3,20,1,1,0.705627548327385,-0.313103974450949,0.812243319913226,7,12,7,2,2
3,21,1,1,0.352530844112238,-0.313103974450949,-0.248960946523441,3,12,7,2,1
3,22,1,1,2.17233693506723,-0.849853644938288,-0.0839239404349196,3,10,3,2,1
3,23,1,1,-1.10059790015779,-0.849853644938288,1.27536698304051,7,10,7,1,2
3,24,1,1,-0.83577537199643,-0.313103974450949,-0.374322333250306,7,12,7,1,0
4,1,1,1,-0.00888346395525166,-0.0591726335413945,-0.239980243496665,3,8,7,2,1
4,2,1,1,2.30747976237662,-0.0591726335413945,-0.228469058708126,7,12,7,2,1
4,3,1,1,1.46799241860534,-0.0591726335413945,0.0691613578327379,3,8,3,2,2
4,4,1,1,0.81505781789434,-0.0591726335413945,-0.0705964987953177,7,8,7,1,1
4,5,1,1,0.370884620131757,-0.68048528572603,0.0949755254622775,7,10,3,1,2
4,6,1,1,0.0954972375189553,3.66870327956642,0.162594424610629,7,10,3,1,1
4,7,1,1,-0.144356289272839,-0.68048528572603,0.196955342455511,3,10,3,1,2
4,9,1,1,-1.33029872729894,-0.0591726335413945,-0.172283430757501,7,8,3,2,0
4,10,1,1,-1.01271489089869,-0.0591726335413945,0.291801758667117,7,8,3,2,1
4,11,1,1,-0.424185403863267,-0.68048528572603,-0.170072946875102,3,10,3,2,0
4,12,1,1,0.21320313492604,-0.0591726335413945,0.0288151657508128,7,8,7,1,2
4,13,1,1,-0.684026724554378,-0.68048528572603,-0.0848498353675265,3,10,7,1,1
4,14,1,1,-0.746210972241139,-0.68048528572603,0.188982328290129,7,10,3,2,2
4,15,1,1,0.470823589628338,1.80476532301251,-0.138500055310031,3,12,3,1,1
4,16,1,1,0.262062186679924,-0.68048528572603,0.286150359847285,3,10,3,2,1
4,17,1,1,0.981622767055308,-0.0591726335413945,-0.053244496963259,7,8,7,2,0
4,19,1,1,-1.1348625202834,-0.0591726335413945,-0.0646394435785413,3,12,7,1,2
4,21,1,1,1.17927984005966,-0.68048528572603,0.150290558548895,3,10,3,1,0
4,22,1,1,-1.33029872729894,-0.0591726335413945,-0.0168440140300372,7,8,7,2,2
4,23,1,1,0.0444173197762583,-0.0591726335413945,-0.0612159412910374,3,12,7,1,0
4,24,1,1,-1.3924829749857,-0.0591726335413945,1.28708507706556,3,12,7,2,2
5,1,1,1,2.16756348179368,-0.395008187929654,-0.0516851266408188,7,8,7,2,2
5,2,1,1,1.08347567432217,-0.395008187929654,0.204686732137192,3,8,7,1,2
5,3,1,1,0.18792487684571,-0.395008187929654,-0.356497015916928,7,12,3,2,2
5,4,1,1,-0.532555839921067,0.371772412169085,-0.119379718117466,3,12,7,2,2
5,5,1,1,1.28547961360258,-0.6506017212959,0.249354504936144,3,10,7,2,1
5,7,1,1,0.807403623972285,-0.395008187929654,0.134932158463205,3,8,3,2,0
5,9,1,1,0.120590230418908,-0.395008187929654,-0.576942958106625,3,8,7,1,1
5,10,1,1,-0.956764112409917,-0.6506017212959,-0.800494655230166,7,10,3,1,2
5,11,1,1,2.44363553214356,2.6721142124653,-0.107258643408979,3,12,3,1,1
5,12,1,1,0.369728422198074,2.6721142124653,0.526615014626963,7,12,3,1,1
5,13,1,1,0.107123301133548,-0.395008187929654,-0.0931570525581509,7,8,3,2,1
5,14,1,1,-0.24301686028582,-0.395008187929654,0.166245571046264,3,12,7,2,0
5,15,1,1,-0.357485759211383,-0.395008187929654,-0.0947521645067654,7,8,7,2,0
5,16,1,1,-1.07123301133548,-0.395008187929654,1.13347454902198,3,12,3,2,2
5,17,1,1,-1.165501516333,-0.6506017212959,-0.654443669157604,3,10,3,1,2
5,18,1,1,-0.559489698491788,1.13855301226782,0.149852857910522,3,10,3,1,0
5,19,1,1,-0.344018829926022,-0.6506017212959,0.835815716239425,7,10,7,2,1
5,20,1,1,-0.707625920630751,-0.6506017212959,0.307516400016091,3,10,7,1,0
5,21,1,1,-0.552756233849107,1.13855301226782,0.4135505887073,7,10,7,1,1
5,22,1,1,-0.822094819556314,-0.395008187929654,-0.035063885297636,7,8,7,1,2
5,23,1,1,-0.465221193494265,-0.395008187929654,0.182474050212018,7,12,7,1,0
5,24,1,1,-0.795160960985593,-0.395008187929654,-0.731899900198994,7,8,3,2,0
6,1,1,1,0.233148016104067,-0.401593372583645,-0.241747906163614,3,8,7,2,1
6,2,1,1,2.25361710552058,0.912712210417374,-0.279650626578925,7,12,3,2,1
6,3,1,1,0.111390490191631,0.912712210417374,-0.133753080507208,3,8,7,1,0
6,4,1,1,0.813702016469159,-0.401593372583645,-0.220854852132763,3,8,7,2,0
6,5,1,1,-0.336818373312119,-0.839695233583985,0.00934533429358626,7,10,7,2,2
6,6,1,1,2.91004898435284,2.22701779341839,-0.361420492326969,7,10,3,1,1
6,7,1,1,-0.0915387196624291,-0.401593372583645,-0.169605529329943,3,8,3,1,2
6,8,1,1,0.0690400463960008,-0.401593372583645,-0.158683469538574,3,8,7,1,2
6,9,1,1,0.40784359676104,-0.401593372583645,-0.0996008792673463,7,12,7,1,0
6,10,1,1,-0.66503431272825,-0.839695233583985,0.11949568420209,7,10,7,1,2
6,11,1,1,-0.430342270027468,-0.401593372583645,-0.241713313073053,7,12,7,2,0
6,12,1,1,-0.864434318932674,-0.839695233583985,-0.126313150228583,3,10,7,2,2
6,13,1,1,-0.118007747034698,-0.401593372583645,-0.0390337363529532,3,8,3,1,0
6,14,1,1,1.42954805333061,-0.839695233583985,-0.229105204679399,3,10,3,2,0
6,15,1,1,-0.779733431341415,-0.401593372583645,-0.22091312404481,3,12,3,2,1
6,16,1,1,0.317848903695326,-0.401593372583645,-0.182876042957776,7,8,3,2,2
6,17,1,1,-1.05677591783783,0.912712210417374,0.235231504650001,3,12,7,1,1
6,18,1,1,-0.250352883896041,-0.401593372583645,0.14653090476163,3,12,3,2,2
6,19,1,1,-0.966781224772113,2.22701779341839,0.381008437882744,3,10,3,1,1
6,20,1,1,-0.91031396637794,2.22701779341839,-0.476370241885216,7,10,7,1,1
6,21,1,1,-0.403873242655199,-0.839695233583985,-0.249402564307642,7,10,3,1,0
6,22,1,1,-0.959722817472841,-0.401593372583645,0.892998787029214,7,12,3,1,2
6,23,1,1,-0.423283862728196,-0.401593372583645,0.255125316513576,7,8,7,2,1
6,24,1,1,-0.289174124042035,-0.401593372583645,0.270537139750428,7,12,3,2,0
7,1,1,1,1.46706724705617,-0.290957186981324,-0.762223188982404,7,8,7,2,2
7,2,1,1,3.76560498367291,-0.290957186981324,-0.919700426048065,3,8,7,1,2
7,3,1,1,0.939971510647681,-0.290957186981324,-0.440397761639398,7,12,3,2,2
7,4,1,1,0.085942975707351,-0.290957186981324,-0.219887290852575,3,12,7,2,2
7,6,1,1,-0.254334018682937,-0.290957186981324,0.488425804078698,7,8,3,1,0
7,7,1,1,-0.457833005524187,-0.290957186981324,0.0660754855141169,3,8,3,2,0
7,8,1,1,-0.368871699801236,-0.290957186981324,-0.0811940278082572,3,8,3,2,1
7,9,1,1,0.065926681919687,-0.290957186981324,-0.211131831549047,3,8,7,1,1
7,10,1,1,-0.331063144868982,2.76409327632257,0.0480552531373309,7,10,3,1,2
7,12,1,1,-0.00524236265867385,1.23656804467062,-0.129163522796026,7,12,3,1,1
7,13,1,1,-0.510097772636421,-0.290957186981324,0.549711481964039,7,8,3,2,1
7,14,1,1,-0.472289217704167,-0.290957186981324,0.00708925528594115,3,12,7,2,0
7,15,1,1,-0.541234229639454,-0.290957186981324,0.596066932602659,7,8,7,2,0
7,16,1,1,-0.531226082745622,-0.290957186981324,0.213846157852123,3,12,3,2,2
7,17,1,1,-0.294366606258265,-0.800132264198639,-0.0916726948724898,3,10,3,1,2
7,19,1,1,-0.425584532199618,-0.800132264198639,-0.271270253059306,7,10,7,2,1
7,20,1,1,-0.446712842308818,-0.800132264198639,-0.0125140416829043,3,10,7,1,0
7,21,1,1,-0.430032597485765,2.76409327632257,0.0433338004105509,7,10,7,1,1
7,22,1,1,-0.401120173125806,-0.290957186981324,-0.13223302877716,7,8,7,1,2
7,23,1,1,-0.516769870565642,-0.290957186981324,-0.240156054270037,7,12,7,1,0
7,24,1,1,-0.337735242798203,-0.290957186981324,-0.115175861266885,7,8,3,2,0
8,1,1,1,1.74430280251217,-0.81401415689105,0.163731332023304,3,10,7,1,1
8,2,1,1,1.95922110775353,-0.222003860970287,0.15294364694323,3,8,3,2,0
8,3,1,1,1.11011763950489,-0.81401415689105,0.409548292502871,7,10,3,2,2
8,4,1,1,1.51881474455403,-0.81401415689105,0.132522128593177,7,10,3,2,0
8,5,1,1,0.070758622354054,-0.222003860970287,-0.0352651960717022,3,8,3,1,1
8,6,1,1,-0.0490319084362115,1.554027026792,-0.277199076646082,7,12,7,2,0
8,7,1,1,1.08193163226012,-0.222003860970287,0.0813014761078326,7,8,7,1,1
8,8,1,1,1.17353615580562,-0.222003860970287,-0.0302698958932102,3,8,3,2,2
8,9,1,1,-1.06020491834228,-0.222003860970287,-0.911862073190248,3,8,7,1,2
8,10,1,1,-0.817100605856149,-0.222003860970287,-0.246596616669408,7,8,3,1,0
8,11,1,1,-0.891088874873666,-0.222003860970287,-0.114117930628976,3,8,7,1,0
8,12,1,1,0.204642156766704,-0.222003860970287,-0.081878465820491,7,8,7,1,0
8,13,1,1,-0.426019755334988,-0.222003860970287,0.0492774885464923,7,8,3,1,1
8,14,1,1,-0.820623856761745,-0.222003860970287,0.137821088440314,3,12,7,2,2
8,15,1,1,-0.915751631212838,-0.81401415689105,-0.211746857356296,3,10,7,2,1
8,16,1,1,0.704943785361342,-0.222003860970287,0.462541162241791,7,12,7,2,2
8,17,1,1,0.641525269060613,3.3300579145543,0.426939448130799,7,10,7,2,1
8,18,1,1,-0.993263151135951,1.554027026792,-0.704185462541738,3,12,3,1,2
8,19,1,1,-0.140636431981709,-0.222003860970287,0.291047727612514,7,12,3,2,1
8,20,1,1,-1.05315841653108,-0.222003860970287,-0.192647328140049,3,12,3,1,0
8,21,1,1,-0.898135376684858,1.554027026792,-0.0282999375339572,7,8,7,1,2
8,22,1,1,-0.947460889363202,-0.81401415689105,-0.204763849006367,3,10,3,2,1
8,23,1,1,-0.95803064207999,-0.81401415689105,-0.0872813966717693,7,10,3,1,2
8,24,1,1,-0.239287457338398,-0.222003860970287,0.367430469324618,3,12,7,2,0
9,1,1,1,0.260359713264582,-0.375540841706121,0.0126240652676665,7,8,7,1,0
9,2,1,1,0.872162075787297,0.706016782407506,0.0825929248019979,3,8,7,1,2
9,3,1,1,0.0506971058832025,0.706016782407506,0.0858682108143407,3,12,3,2,2
9,4,1,1,0.229425885946018,-0.375540841706121,0.233864613897445,7,12,3,2,2
9,5,1,1,0.555949618753085,-0.375540841706121,0.0904685792680368,7,8,3,1,1
9,6,1,1,-0.45455540698668,-0.375540841706121,1.03068675597673,7,8,7,1,2
9,7,1,1,0.188180782854599,-0.736060049743996,0.0389654250318073,7,10,7,2,1
9,8,1,1,3.27468933086245,-0.375540841706121,0.181030387188616,3,8,7,2,2
9,9,1,1,0.0575712897317723,3.95068965474839,0.158792160106783,3,12,7,1,1
9,10,1,1,-0.433932855440971,0.706016782407506,0.130173192549374,7,12,3,1,0
9,11,1,1,1.06463922354725,-0.736060049743996,-0.136982107589761,3,10,3,2,0
9,12,1,1,-0.884191897522294,-0.375540841706121,-0.0513088386654699,7,8,7,1,1
9,13,1,1,-0.976993379477987,0.706016782407506,0.0755011540345092,3,12,3,1,1
9,14,1,1,0.896221719257292,-0.375540841706121,0.149868918111392,3,8,3,1,0
9,15,1,1,-0.578290716260937,0.706016782407506,-0.198649542165667,7,8,3,2,1
9,16,1,1,-0.949496644083708,-0.375540841706121,-0.0235178864951311,3,12,3,2,1
9,17,1,1,-0.743271128626613,-0.736060049743996,0.0836998445569878,7,10,3,2,0
9,18,1,1,-0.935748276386568,0.706016782407506,0.0866520771576785,3,12,7,1,0
9,19,1,1,0.384095022538839,-0.736060049743996,0.13563345685033,3,10,7,2,0
9,20,1,1,1.22618254398864,-0.375540841706121,0.111140161545075,3,12,3,1,2
9,21,1,1,-0.616098727428071,-0.375540841706121,-0.127890896537164,3,8,7,2,1
9,22,1,1,-0.66421801436806,-0.375540841706121,-0.0532021567893449,7,8,7,2,2
9,23,1,1,-1.21071563032936,-0.375540841706121,0.629537726295776,7,8,3,1,2
9,24,1,1,-0.612661635503786,-0.736060049743996,1.01646656960394,7,10,7,2,0
10,1,1,1,0.296138490004323,-0.435642635968827,0.257397820091772,7,12,3,1,2
10,2,1,1,-0.863279046458227,-0.91088914793482,0.43107658286889,7,10,3,1,0
10,3,1,1,-0.850710834680855,0.990096899929152,-0.11513121257206,7,12,7,1,1
10,4,1,1,0.726599743379308,-0.435642635968827,0.154538742692475,7,8,7,2,2
10,5,1,1,-0.0212088573743149,-0.435642635968827,0.280407371708157,7,12,7,2,1
10,6,1,1,1.78232953267854,0.990096899929152,0.0669270833998651,7,12,7,1,2
10,7,1,1,0.113899419232432,0.990096899929152,0.321008169566642,3,8,3,1,0
10,8,1,1,0.393542131278955,-0.91088914793482,0.155516106593602,3,10,7,1,2
10,9,1,1,-0.341698257697296,2.41583643582713,0.414491035445098,3,10,3,2,0
10,10,1,1,-0.401397263639812,-0.91088914793482,0.0983721130198956,7,10,3,2,0
10,11,1,1,-0.0777658103724881,0.990096899929152,0.15402471177706,7,8,7,2,0
10,12,1,1,0.73916795515668,-0.435642635968827,-0.00280352428274444,3,12,7,2,2
10,13,1,1,-0.674755869797649,-0.91088914793482,0.389909448217517,7,10,3,1,1
10,14,1,1,-0.995245270120631,-0.435642635968827,0.185722690764896,3,8,7,2,1
10,15,1,1,2.75008183953617,-0.91088914793482,-0.043202534361264,7,10,7,1,0
10,16,1,1,0.54750272555176,-0.435642635968827,0.672512171831127,3,12,3,2,2
10,17,1,1,0.849139808208683,-0.435642635968827,0.371162969836046,3,8,3,2,1
10,18,1,1,-0.847568781736512,-0.435642635968827,0.864612789707448,3,12,3,1,2
10,19,1,1,-1.33772904105401,0.990096899929152,-0.214840366146051,3,12,7,1,1
10,20,1,1,0.054200413289916,2.41583643582713,0.346406087836826,3,10,7,2,0
10,21,1,1,-1.3440131469427,-0.435642635968827,0.168939588602975,7,12,3,2,1
10,22,1,1,1.07536762020138,-0.435642635968827,0.138293106048533,3,8,7,1,0
10,23,1,1,-0.800437987571368,-0.435642635968827,-0.0876637326429129,3,8,3,1,1
10,24,1,1,-0.772159511072281,-0.435642635968827,0.0979978772881396,7,8,3,2,2
12,1,1,1,1.63379658227562,-0.0687084700658151,-0.691023926193545,7,8,7,2,2
12,2,1,1,1.03887795843342,-0.0687084700658151,0.0601079256315266,3,8,7,1,2
12,3,1,1,0.997957629809359,-0.0687084700658151,-0.42191634505631,7,12,3,2,2
12,4,1,1,1.58343310089215,-0.0687084700658151,-0.0454923621767786,3,12,7,2,2
12,5,1,1,-0.558588716698391,-0.893210110855586,-0.181529071389626,3,10,7,2,1
12,6,1,1,0.946020289632659,-0.0687084700658151,-0.390954050397396,7,8,3,1,0
12,7,1,1,1.61018870037712,-0.0687084700658151,-0.0456991174939871,3,8,3,2,0
12,8,1,1,0.340084654237832,-0.0687084700658151,0.178444923379379,3,8,3,2,1
12,9,1,1,0.333789219064899,-0.0687084700658151,-0.785702371149402,3,8,7,1,1
12,10,1,1,0.920838548940926,-0.893210110855586,-0.0748645998999091,7,10,3,1,2
12,11,1,1,0.90352610221536,2.4047964523035,0.011425275387792,3,12,3,1,1
12,12,1,1,-0.234373805292328,2.4047964523035,-0.49163716542296,7,12,3,1,1
12,13,1,1,-1.11416087070975,-0.0687084700658151,0.633108224808712,7,8,3,2,1
12,14,1,1,-0.324083756506627,-0.0687084700658151,-0.146607241752238,3,12,7,2,0
12,15,1,1,-0.621543068427724,-0.0687084700658151,-0.462469571643389,7,8,7,2,0
12,16,1,1,0.417203735106265,-0.0687084700658151,-0.613285249450871,3,12,3,2,2
12,17,1,1,-0.659315679465324,-0.893210110855586,-0.310058430466398,3,10,3,1,2
12,18,1,1,-0.846604875860088,-0.893210110855586,-1.15086098777699,3,10,3,1,0
12,19,1,1,-1.26997289123985,-0.893210110855586,0.473109626122228,7,10,7,2,1
12,20,1,1,-1.03074635466839,-0.893210110855586,0.476610806381756,3,10,7,1,0
12,21,1,1,-0.819849276375122,-0.893210110855586,0.902099623493134,7,10,7,1,1
12,22,1,1,-0.936314827074387,-0.0687084700658151,-0.485514088142105,7,8,7,1,2
12,23,1,1,-0.99454760242402,2.4047964523035,-0.11290041218732,7,12,7,1,0
12,24,1,1,-1.31561479624362,-0.0687084700658151,0.213561672314047,7,8,3,2,0
13,1,1,1,0.786978041941942,3.07487454701057,0.0996389934164776,7,10,7,1,1
13,2,1,1,0.495618884396345,-0.229468249776909,0.0750484812031143,3,8,3,1,1
13,3,1,1,-0.376146213974209,1.42270314861683,-0.150711433017915,3,12,7,1,0
13,4,1,1,0.958093737643324,-0.229468249776909,0.0515605908335148,3,8,7,2,1
13,5,1,1,1.40669434529289,-0.229468249776909,0.0579836567147077,7,12,3,1,2
13,6,1,1,0.810101784604291,-0.780192049241489,0.194718410742658,7,10,3,2,2
13,7,1,1,1.27951376064997,-0.780192049241489,-0.117337928256594,3,10,3,2,2
13,8,1,1,1.39744484822795,1.42270314861683,0.0259337259396932,7,12,3,1,1
13,9,1,1,0.49793125866258,1.42270314861683,0.041973272370868,3,12,7,2,2
13,10,1,1,0.523367375591164,-0.780192049241489,0.409562567560151,3,10,7,2,0
13,11,1,1,0.375375422552131,-0.229468249776909,0.00513791295542385,7,12,3,1,0
13,12,1,1,1.19164353853305,-0.229468249776909,0.0331597374790367,7,12,7,2,2
13,13,1,1,0.363813551220956,-0.229468249776909,-0.0679777428200933,3,8,3,2,0
13,14,1,1,-0.850182938552362,-0.780192049241489,-0.0194596389567886,3,10,3,2,1
13,15,1,1,-1.11379360490314,-0.229468249776909,0.408574420702908,3,8,3,1,2
13,16,1,1,0.449371399071647,-0.780192049241489,-0.0245720641334181,7,10,7,1,2
13,17,1,1,0.0886410135390041,-0.229468249776909,-0.13949726212147,7,12,3,2,1
13,18,1,1,-1.7011366685268,-0.780192049241489,0.316642044972563,3,10,3,1,0
13,19,1,1,-0.998174891591396,-0.229468249776909,-0.062264936082613,7,8,7,1,0
13,20,1,1,-0.713752856844504,1.42270314861683,-0.0935889673018101,3,12,7,1,1
13,21,1,1,-1.05367187398103,-0.780192049241489,-0.0586127295563996,3,10,7,1,2
13,22,1,1,-1.33809390872792,-0.229468249776909,-0.0194110500992193,7,12,7,2,1
13,23,1,1,-1.4490878735072,-0.780192049241489,-0.0513946625842938,7,10,7,2,0
13,24,1,1,-1.03054813131868,-0.229468249776909,-0.0136274742373648,7,8,3,2,0
14,2,1,1,-0.315219554572394,-0.268182305786454,4.44429346157503,3,8,7,1,2
14,3,1,1,1.56452084710522,1.50182091240414,5.92299803649874,7,12,7,2,2
14,4,1,1,0.895953384652873,-0.858183378516652,8.14501699646592,7,10,3,1,1
14,10,1,1,-0.765083789141779,1.50182091240414,3.40384173542535,3,12,3,1,2
14,11,1,1,-0.994860598183372,-0.268182305786454,0.847565909651066,7,8,7,2,1
14,16,1,1,-0.456407714344939,-0.268182305786454,2.8690988306302,7,12,7,1,1
14,17,1,1,-0.665421558714099,-0.858183378516652,3.77728327946201,7,10,7,2,0
14,19,1,1,0.513914834680103,-0.268182305786454,3.06766650550867,7,8,3,2,2
14,20,1,1,-0.986555412314399,1.50182091240414,8.85909463554174,3,12,3,1,1
14,22,1,1,1.71262999510191,-0.858183378516652,7.21237554111971,7,10,3,1,0
14,24,1,1,-0.503470434269121,-0.858183378516652,5.44390656341121,7,10,7,1,2
15,1,1,1,1.08278858340077,-0.715491385636572,-0.153863730345847,3,8,7,2,2
15,2,1,1,0.64626485667867,0.946295058422562,-0.457610739633802,3,10,7,1,0
15,3,1,1,2.21932333135292,0.115401836392995,-0.0412059018186374,3,12,3,2,0
15,4,1,1,1.31874735460191,0.115401836392995,0.313298147530633,3,12,3,1,0
15,5,1,1,0.249067591823422,0.115401836392995,-0.678813551115527,7,12,7,1,1
15,6,1,1,2.44741681018068,-0.99245579297976,-0.225029345901641,3,10,3,1,2
15,7,1,1,-0.671171615861012,-0.715491385636572,0.226733140797155,7,8,3,1,0
15,8,1,1,-0.710498077727868,2.6080815024817,0.0832513669014407,3,12,7,1,1
15,9,1,1,1.01593359822712,-0.715491385636572,-0.0557094217563457,3,8,7,1,2
15,10,1,1,-0.226782596765537,0.946295058422562,0.502361987611841,7,10,3,2,0
15,11,1,1,0.103559682916055,-0.715491385636572,-0.0552995332474752,3,8,7,2,0
15,12,1,1,0.426036670224275,-0.715491385636572,-0.470288075428004,7,8,3,1,2
15,13,1,1,-0.0340829336179419,-0.715491385636572,0.166459938212824,7,8,7,1,2
15,14,1,1,-0.970052726049118,0.115401836392995,0.607192447936019,3,12,3,2,2
15,15,1,1,-1.1116279887698,0.115401836392995,-0.331289588426682,7,12,3,2,2
15,16,1,1,-0.66330632348764,0.115401836392995,-0.191041891221248,3,12,7,2,1
15,17,1,1,-0.541394291700386,2.6080815024817,-0.0446565680711682,3,12,3,1,1
15,18,1,1,-1.02117712647603,0.115401836392995,0.556503191816737,7,12,7,2,2
15,19,1,1,-0.266109058632393,-0.715491385636572,0.862435001307431,7,8,7,2,0
15,20,1,1,-0.596451338313985,-0.715491385636572,-0.834330338296444,7,8,3,2,1
15,21,1,1,-0.616114569247413,-0.715491385636572,-0.604079925899973,3,8,3,2,1
15,22,1,1,-0.293637581939192,0.946295058422562,0.199087642987754,7,10,7,2,1
15,23,1,1,-0.793083647648266,-0.715491385636572,0.361767103602642,7,8,3,1,1
15,24,1,1,-0.993648603169232,-0.715491385636572,0.63211850438201,7,8,7,1,0
16,1,1,1,-0.0767076766725516,-0.300796416641907,-0.212651248812457,3,12,7,2,2
16,2,1,1,-0.0369333258053026,-0.300796416641907,-0.197875691964914,3,8,7,1,2
16,3,1,1,1.44202314929934,-0.300796416641907,-0.18564274184456,7,12,7,2,2
16,4,1,1,-0.737448933936647,1.76180758318831,-0.400481390532467,7,10,3,1,1
16,5,1,1,-0.0734607908874701,-0.300796416641907,-0.609534138437933,3,12,3,2,1
16,6,1,1,0.620561045673711,-0.300796416641907,-0.16197478659328,7,8,3,2,1
16,7,1,1,-0.0109582395246502,-0.300796416641907,-0.227254577663731,7,8,3,2,0
16,8,1,1,-0.339705425264157,-0.644563749946943,-0.000343152238595934,3,10,7,2,1
16,9,1,1,-0.334023375140264,-0.300796416641907,-0.45995883419762,3,8,3,1,0
16,10,1,1,-1.01181078277604,0.730505583273202,-0.776028574823246,3,12,3,1,2
16,11,1,1,2.18961860131437,-0.300796416641907,-0.45933901021589,7,8,7,2,1
16,12,1,1,-0.677381546912638,-0.644563749946943,0.0975250147214656,7,10,3,1,2
16,13,1,1,0.749624755630703,-0.300796416641907,-0.453184133461341,3,8,7,2,0
16,14,1,1,-0.898981501744454,0.730505583273202,-0.01262224271958,3,12,3,2,2
16,15,1,1,-0.22038237266241,-0.644563749946943,-0.27033656126608,3,10,7,1,0
16,16,1,1,0.573481201790029,3.82441158301853,-0.210437050772842,7,12,7,1,1
16,17,1,1,0.221194094108681,-0.644563749946943,-0.22758272248579,7,10,7,2,0
16,18,1,1,-0.839725836166716,-0.300796416641907,-0.614499788774608,7,12,7,1,0
16,19,1,1,-0.0702139051023885,-0.300796416641907,-0.354601825034252,7,8,3,2,2
16,20,1,1,-0.574292923236299,0.730505583273202,-0.123942086334243,3,12,3,1,1
16,21,1,1,2.82925510097544,-0.300796416641907,-0.450882572619154,3,12,3,2,0
16,22,1,1,-0.585657023484085,-0.644563749946943,0.0383126768306631,7,10,3,1,0
16,23,1,1,-1.0183045543462,-0.300796416641907,-0.225184969683644,3,8,7,1,1
16,24,1,1,-1.11976973513,-0.644563749946943,-0.331191127010054,7,10,7,1,2
17,1,1,1,1.15396500324483,-0.25993450567827,-0.0681768631132644,3,8,7,2,1
17,2,1,1,2.26490879391686,1.07687152352426,-0.00392512571407902,7,12,7,2,1
17,3,1,1,0.419764882326164,-0.25993450567827,0.032593687727088,3,8,3,2,2
17,4,1,1,1.66186175939697,-0.25993450567827,0.336019585808165,7,8,7,1,1
17,5,1,1,-0.633317252581696,-0.705536515412446,0.481421042643123,7,10,3,1,2
