Subject,Trial,Gaussian_Centroid,Standard_Deviation,Reaction_Time,Secondary_Task_Acc,Net_Cognitive_Load,Speed,Number_of_Fish,Turbidity,CameraDistance,Fish_Type
1,1,1,0.1,2.28434771725881,-0.255609437163093,-0.206528793963031,7,8,3,1,0
1,3,1,0.1,-0.171026510066587,-0.843511142638205,-0.141735348200637,3,10,3,1,1
1,4,1,0.1,1.60070853734751,1.50809567926225,-1.12068356344467,3,12,3,1,2
1,5,1,0.1,-0.385782273389508,-0.255609437163093,2.86093137638365,7,12,3,1,2
1,6,1,0.1,0.0186744142019933,-0.255609437163093,0.035781167678851,7,12,3,2,0
1,7,1,0.1,-0.0672278911271752,-0.255609437163093,0.238484184946633,7,12,7,2,0
1,8,1,0.1,-0.471684578718677,-0.255609437163093,0.0820760055506297,3,12,3,2,0
1,9,1,0.1,-0.428733426054093,-0.255609437163093,-0.0794299701836453,3,8,7,2,0
1,10,1,0.1,-0.740129282872328,-0.255609437163093,1.81106774577611,7,8,3,2,2
1,11,1,0.1,-0.840348639089692,-0.843511142638205,0.654279455131115,7,10,7,1,1
1,12,1,0.1,-0.718653706540036,-0.255609437163093,0.162343032921262,7,8,7,1,0
1,13,1,0.1,-0.16386798462249,1.50809567926225,0.14390001778638,3,12,7,1,0
1,14,1,0.1,-0.919092418974763,-0.255609437163093,-0.768378911657123,7,8,3,1,1
1,15,1,0.1,1.10677028170479,-0.843511142638205,0.306028984654471,3,10,7,1,2
1,16,1,0.1,0.240588702969012,-0.843511142638205,-0.24618123179604,3,10,7,2,2
1,17,1,0.1,2.69954219301646,1.50809567926225,-1.11810912157163,7,12,7,1,2
1,18,1,0.1,0.430289627237592,-0.255609437163093,0.542296105702782,7,8,7,2,1
1,19,1,0.1,-0.679281816597501,-0.255609437163093,2.91303474203592,7,8,3,2,1
1,20,1,0.1,-0.546849095881699,-0.843511142638205,-0.212000806648815,7,10,7,2,2
1,21,1,0.1,-0.443050476942287,-0.255609437163093,1.50195291129888,3,8,3,2,2
1,22,1,0.1,-0.29987996806034,-0.255609437163093,1.23954038656625,3,8,3,2,1
1,23,1,0.1,-0.589800248546284,3.27180079568758,-0.180418750631097,3,10,3,1,0
1,24,1,0.1,-0.915513156252714,-0.255609437163093,-0.112226949947575,3,8,7,1,1
2,1,1,0.1,0.464088670255891,-0.420558293861036,-0.0370119697518402,7,12,3,1,2
2,2,1,0.1,1.02587331658995,1.53300281310635,0.0428415510678359,7,10,3,1,0
2,3,1,0.1,0.830743635510334,3.48656392007375,0.846309669058359,7,12,7,1,1
2,4,1,0.1,1.23673926227276,-0.420558293861036,0.0857196012155575,7,8,7,2,2
2,5,1,0.1,-0.0221619059828328,-0.420558293861036,-0.314048327901146,7,12,7,2,1
2,6,1,0.1,0.674954615938704,0.556222259622659,0.327492050496846,7,12,7,1,2
2,7,1,0.1,1.43029531689206,-0.420558293861036,0.365949570199243,3,8,3,1,0
2,8,1,0.1,1.83943819657513,-0.746151811688934,-0.195291972934331,3,10,7,1,2
2,9,1,0.1,0.0816974403982539,-0.746151811688934,0.0399239511368171,3,10,3,2,0
2,10,1,0.1,-0.402979509380151,-0.746151811688934,0.194204405993372,7,10,3,2,0
2,11,1,0.1,-0.0945487231575296,-0.420558293861036,-0.171342906314472,7,8,7,2,0
2,12,1,0.1,0.169820522176146,0.556222259622659,2.0508780444611,3,12,7,2,2
2,13,1,0.1,-0.989942179079322,1.53300281310635,-0.0092173241386426,7,10,3,1,1
2,14,1,0.1,1.68050192408286,-0.420558293861036,-0.219430031846847,3,8,7,2,1
2,15,1,0.1,-1.0607553697937,-0.746151811688934,0.404512490110013,7,10,7,1,0
2,16,1,0.1,-0.612271828602644,-0.420558293861036,-0.198154623012646,3,12,3,2,2
2,17,1,0.1,0.475104055478128,0.556222259622659,1.64885700563522,3,8,3,2,1
2,18,1,0.1,-0.115005867141683,-0.420558293861036,0.0781150492935696,3,12,3,1,2
2,19,1,0.1,-0.706689416221813,0.556222259622659,0.111547642258531,3,12,7,1,1
2,20,1,0.1,-1.42268945566718,-0.746151811688934,0.855816619460178,3,10,7,2,0
2,21,1,0.1,-0.635876225507436,-0.420558293861036,0.810287481082124,7,12,3,2,1
2,22,1,0.1,-1.38649604707984,-0.420558293861036,0.0846915675081681,3,8,7,1,0
2,23,1,0.1,-1.20080812476213,-0.420558293861036,0.13716588737952,3,8,3,1,1
2,24,1,0.1,-1.25903230379396,-0.420558293861036,1.40400515680308,7,8,3,2,2
3,1,1,0.1,3.2587883326523,-0.313103974450949,-0.549799731545328,7,8,3,2,0
3,2,1,0.1,0.338950201642425,1.29714503701107,-0.228333378856547,3,8,3,1,0
3,3,1,0.1,0.773530760676452,-0.313103974450949,-0.606781182690516,3,8,7,2,2
3,4,1,0.1,-0.231436782089736,1.29714503701107,1.12428293849462,7,8,3,1,1
3,5,1,0.1,-0.557372201365257,-0.313103974450949,-0.769555057487366,7,8,7,1,1
3,6,1,0.1,-0.163533569740669,2.90739404847309,-0.100023292099038,7,10,7,2,1
3,7,1,0.1,-0.38761417049259,-0.849853644938288,0.681214602990945,7,10,3,1,2
3,8,1,0.1,-0.28575935196899,1.29714503701107,-0.629587462801472,7,8,7,2,0
3,9,1,0.1,-0.143162606035949,1.29714503701107,0.292736539672084,3,12,7,1,1
3,10,1,0.1,-0.808614087056804,-0.849853644938288,0.851888455460064,7,10,3,2,2
3,11,1,0.1,-0.964791475459657,-0.849853644938288,0.480021776274997,3,10,7,1,0
3,12,1,0.1,-0.849356014466244,1.29714503701107,1.2042125116834,3,12,3,1,1
3,13,1,0.1,-0.50983995272091,-0.313103974450949,-0.748295647554692,3,12,7,2,0
3,14,1,0.1,0.522288874984905,-0.849853644938288,0.502288778059455,3,10,3,2,2
3,15,1,0.1,-0.910468905580404,-0.849853644938288,1.10451146892744,7,10,3,2,1
3,16,1,0.1,-0.217856139619923,-0.313103974450949,0.291519902314922,3,8,3,1,2
3,17,1,0.1,-0.231436782089736,-0.313103974450949,0.285740129673663,7,8,3,1,0
3,18,1,0.1,0.0605470310112509,-0.313103974450949,-0.107249422653789,3,8,3,2,0
3,19,1,0.1,0.0130147823669042,-0.313103974450949,-0.495238281033526,3,8,7,1,2
3,20,1,0.1,0.705627548327385,-0.313103974450949,-0.200278004824966,7,12,7,2,2
3,21,1,0.1,0.352530844112238,-0.313103974450949,0.43131095000683,3,12,7,2,1
3,22,1,0.1,2.17233693506723,-0.849853644938288,-0.0863831253276599,3,10,3,2,1
3,23,1,0.1,-1.10059790015779,-0.849853644938288,-0.215358000267816,7,10,7,1,2
3,24,1,0.1,-0.83577537199643,-0.313103974450949,0.568809574661262,7,12,7,1,0
4,1,1,0.1,-0.00888346395525166,-0.0591726335413945,-0.436854730260306,3,8,7,2,1
4,2,1,0.1,2.30747976237662,-0.0591726335413945,-0.122368791058698,7,12,7,2,1
4,3,1,0.1,1.46799241860534,-0.0591726335413945,-0.0408700841667545,3,8,3,2,2
4,4,1,0.1,0.81505781789434,-0.0591726335413945,-0.104457453203081,7,8,7,1,1
4,5,1,0.1,0.370884620131757,-0.68048528572603,0.155568722037448,7,10,3,1,2
4,6,1,0.1,0.0954972375189553,3.66870327956642,0.0345319690690504,7,10,3,1,1
4,7,1,0.1,-0.144356289272839,-0.68048528572603,0.0814678481078126,3,10,3,1,2
4,9,1,0.1,-1.33029872729894,-0.0591726335413945,-0.235304157548364,7,8,3,2,0
4,10,1,0.1,-1.01271489089869,-0.0591726335413945,-0.112639761860282,7,8,3,2,1
4,11,1,0.1,-0.424185403863267,-0.68048528572603,0.161316822093128,3,10,3,2,0
4,12,1,0.1,0.21320313492604,-0.0591726335413945,-0.0376796391027603,7,8,7,1,2
4,13,1,0.1,-0.684026724554378,-0.68048528572603,0.123939236730578,3,10,7,1,1
4,14,1,0.1,-0.746210972241139,-0.68048528572603,0.0184148357513619,7,10,3,2,2
4,15,1,0.1,0.470823589628338,1.80476532301251,-0.340837639605039,3,12,3,1,1
4,16,1,0.1,0.262062186679924,-0.68048528572603,-0.0759843432739072,3,10,3,2,1
4,17,1,0.1,0.981622767055308,-0.0591726335413945,-0.097784386689186,7,8,7,2,0
4,19,1,0.1,-1.1348625202834,-0.0591726335413945,-0.382180780786032,3,12,7,1,2
4,21,1,0.1,1.17927984005966,-0.68048528572603,-0.192192108082215,3,10,3,1,0
4,22,1,0.1,-1.33029872729894,-0.0591726335413945,-0.0479962330200467,7,8,7,2,2
4,23,1,0.1,0.0444173197762583,-0.0591726335413945,0.122109998187653,3,12,7,1,0
4,24,1,0.1,-1.3924829749857,-0.0591726335413945,0.826780464489265,3,12,7,2,2
5,1,1,0.1,2.16756348179368,-0.395008187929654,-0.103413660730381,7,8,7,2,2
5,2,1,0.1,1.08347567432217,-0.395008187929654,0.0600239241946963,3,8,7,1,2
5,3,1,0.1,0.18792487684571,-0.395008187929654,-0.176366489503352,7,12,3,2,2
5,4,1,0.1,-0.532555839921067,0.371772412169085,-0.128211660920972,3,12,7,2,2
5,5,1,0.1,1.28547961360258,-0.6506017212959,-0.0624625173366947,3,10,7,2,1
5,7,1,0.1,0.807403623972285,-0.395008187929654,-0.272093413999634,3,8,3,2,0
5,9,1,0.1,0.120590230418908,-0.395008187929654,-1.2978611306309,3,8,7,1,1
5,10,1,0.1,-0.956764112409917,-0.6506017212959,-0.551298708581972,7,10,3,1,2
5,11,1,0.1,2.44363553214356,2.6721142124653,-0.596286743891719,3,12,3,1,1
5,12,1,0.1,0.369728422198074,2.6721142124653,0.827376941460996,7,12,3,1,1
5,13,1,0.1,0.107123301133548,-0.395008187929654,-0.242935233275023,7,8,3,2,1
5,14,1,0.1,-0.24301686028582,-0.395008187929654,0.873182734471655,3,12,7,2,0
5,15,1,0.1,-0.357485759211383,-0.395008187929654,0.979377269178137,7,8,7,2,0
5,16,1,0.1,-1.07123301133548,-0.395008187929654,3.50053304927299,3,12,3,2,2
5,17,1,0.1,-1.165501516333,-0.6506017212959,-1.18738367428949,3,10,3,1,2
5,18,1,0.1,-0.559489698491788,1.13855301226782,0.0677340612514526,3,10,3,1,0
5,19,1,0.1,-0.344018829926022,-0.6506017212959,-0.205048889260497,7,10,7,2,1
5,20,1,0.1,-0.707625920630751,-0.6506017212959,0.347754795399167,3,10,7,1,0
5,21,1,0.1,-0.552756233849107,1.13855301226782,0.0544640064978982,7,10,7,1,1
5,22,1,0.1,-0.822094819556314,-0.395008187929654,-0.247559217730809,7,8,7,1,2
5,23,1,0.1,-0.465221193494265,-0.395008187929654,1.75117515612696,7,12,7,1,0
5,24,1,0.1,-0.795160960985593,-0.395008187929654,-0.867720788509964,7,8,3,2,0
6,1,1,0.1,0.233148016104067,-0.401593372583645,-0.219322595010046,3,8,7,2,1
6,2,1,0.1,2.25361710552058,0.912712210417374,0.0748495833220666,7,12,3,2,1
6,3,1,0.1,0.111390490191631,0.912712210417374,0.0234914153104331,3,8,7,1,0
6,4,1,0.1,0.813702016469159,-0.401593372583645,-0.249084969462353,3,8,7,2,0
6,5,1,0.1,-0.336818373312119,-0.839695233583985,0.0761620828082026,7,10,7,2,2
6,6,1,0.1,2.91004898435284,2.22701779341839,-0.0026212549065753,7,10,3,1,1
6,7,1,0.1,-0.0915387196624291,-0.401593372583645,0.0416036028985268,3,8,3,1,2
6,8,1,0.1,0.0690400463960008,-0.401593372583645,-0.0884369957687452,3,8,7,1,2
6,9,1,0.1,0.40784359676104,-0.401593372583645,0.205747810494831,7,12,7,1,0
6,10,1,0.1,-0.66503431272825,-0.839695233583985,0.417088297381326,7,10,7,1,2
6,11,1,0.1,-0.430342270027468,-0.401593372583645,-0.158717852601877,7,12,7,2,0
6,12,1,0.1,-0.864434318932674,-0.839695233583985,0.382211449576565,3,10,7,2,2
6,13,1,0.1,-0.118007747034698,-0.401593372583645,0.381323717189473,3,8,3,1,0
6,14,1,0.1,1.42954805333061,-0.839695233583985,-0.0134361828497853,3,10,3,2,0
6,15,1,0.1,-0.779733431341415,-0.401593372583645,0.0644313980469004,3,12,3,2,1
6,16,1,0.1,0.317848903695326,-0.401593372583645,-0.143165346283599,7,8,3,2,2
6,17,1,0.1,-1.05677591783783,0.912712210417374,0.381807048904152,3,12,7,1,1
6,18,1,0.1,-0.250352883896041,-0.401593372583645,-0.37600937309061,3,12,3,2,2
6,19,1,0.1,-0.966781224772113,2.22701779341839,-0.308162132547768,3,10,3,1,1
6,20,1,0.1,-0.91031396637794,2.22701779341839,-0.0129673218029023,7,10,7,1,1
6,21,1,0.1,-0.403873242655199,-0.839695233583985,0.090497533906837,7,10,3,1,0
6,22,1,0.1,-0.959722817472841,-0.401593372583645,0.673600309461214,7,12,3,1,2
6,23,1,0.1,-0.423283862728196,-0.401593372583645,0.238174382079263,7,8,7,2,1
6,24,1,0.1,-0.289174124042035,-0.401593372583645,0.441767264480243,7,12,3,2,0
7,1,1,0.1,1.46706724705617,-0.290957186981324,-0.893863309381574,7,8,7,2,2
7,2,1,0.1,3.76560498367291,-0.290957186981324,0.551817008274972,3,8,7,1,2
7,3,1,0.1,0.939971510647681,-0.290957186981324,0.944522459285584,7,12,3,2,2
7,4,1,0.1,0.085942975707351,-0.290957186981324,0.840961267465149,3,12,7,2,2
7,6,1,0.1,-0.254334018682937,-0.290957186981324,2.04853664623954,7,8,3,1,0
7,7,1,0.1,-0.457833005524187,-0.290957186981324,0.160862334022908,3,8,3,2,0
7,8,1,0.1,-0.368871699801236,-0.290957186981324,0.944864004193178,3,8,3,2,1
7,9,1,0.1,0.065926681919687,-0.290957186981324,0.719018781078739,3,8,7,1,1
7,10,1,0.1,-0.331063144868982,2.76409327632257,-0.0169185075622511,7,10,3,1,2
7,12,1,0.1,-0.00524236265867385,1.23656804467062,2.3393828482001,7,12,3,1,1
7,13,1,0.1,-0.510097772636421,-0.290957186981324,1.27216885233206,7,8,3,2,1
7,14,1,0.1,-0.472289217704167,-0.290957186981324,0.839294798691393,3,12,7,2,0
7,15,1,0.1,-0.541234229639454,-0.290957186981324,1.04119092317707,7,8,7,2,0
7,16,1,0.1,-0.531226082745622,-0.290957186981324,0.690858711290744,3,12,3,2,2
7,17,1,0.1,-0.294366606258265,-0.800132264198639,1.34041869963563,3,10,3,1,2
7,19,1,0.1,-0.425584532199618,-0.800132264198639,1.54198071420903,7,10,7,2,1
7,20,1,0.1,-0.446712842308818,-0.800132264198639,1.05141086526156,3,10,7,1,0
7,21,1,0.1,-0.430032597485765,2.76409327632257,2.16388476086468,7,10,7,1,1
7,22,1,0.1,-0.401120173125806,-0.290957186981324,1.68464133930844,7,8,7,1,2
7,23,1,0.1,-0.516769870565642,-0.290957186981324,-0.500790077264318,7,12,7,1,0
7,24,1,0.1,-0.337735242798203,-0.290957186981324,3.001196574798,7,8,3,2,0
8,1,1,0.1,1.74430280251217,-0.81401415689105,0.367468231024543,3,10,7,1,1
8,2,1,0.1,1.95922110775353,-0.222003860970287,0.0192346176877296,3,8,3,2,0
8,3,1,0.1,1.11011763950489,-0.81401415689105,-5.65597963481901,7,10,3,2,2
8,4,1,0.1,1.51881474455403,-0.81401415689105,0.251955387084308,7,10,3,2,0
8,5,1,0.1,0.070758622354054,-0.222003860970287,-0.241260776324293,3,8,3,1,1
8,6,1,0.1,-0.0490319084362115,1.554027026792,0.193493928485091,7,12,7,2,0
8,7,1,0.1,1.08193163226012,-0.222003860970287,-0.058014208515354,7,8,7,1,1
8,8,1,0.1,1.17353615580562,-0.222003860970287,0.242325406055593,3,8,3,2,2
8,9,1,0.1,-1.06020491834228,-0.222003860970287,-1.52171479478879,3,8,7,1,2
8,10,1,0.1,-0.817100605856149,-0.222003860970287,-0.00513091672046201,7,8,3,1,0
8,11,1,0.1,-0.891088874873666,-0.222003860970287,0.137645324350834,3,8,7,1,0
8,12,1,0.1,0.204642156766704,-0.222003860970287,0.592955832824624,7,8,7,1,0
8,13,1,0.1,-0.426019755334988,-0.222003860970287,0.474307018549722,7,8,3,1,1
8,14,1,0.1,-0.820623856761745,-0.222003860970287,0.224341739435677,3,12,7,2,2
8,15,1,0.1,-0.915751631212838,-0.81401415689105,-0.107173238832917,3,10,7,2,1
8,16,1,0.1,0.704943785361342,-0.222003860970287,-0.203913791627726,7,12,7,2,2
8,17,1,0.1,0.641525269060613,3.3300579145543,1.32106251858586,7,10,7,2,1
8,18,1,0.1,-0.993263151135951,1.554027026792,-0.485720451164457,3,12,3,1,2
8,19,1,0.1,-0.140636431981709,-0.222003860970287,-0.0301897464511762,7,12,3,2,1
8,20,1,0.1,-1.05315841653108,-0.222003860970287,0.0653503031550744,3,12,3,1,0
8,21,1,0.1,-0.898135376684858,1.554027026792,-0.437454390054522,7,8,7,1,2
8,22,1,0.1,-0.947460889363202,-0.81401415689105,-0.694361714301999,3,10,3,2,1
8,23,1,0.1,-0.95803064207999,-0.81401415689105,0.63889303245205,7,10,3,1,2
8,24,1,0.1,-0.239287457338398,-0.222003860970287,-0.654779678331724,3,12,7,2,0
9,1,1,0.1,0.260359713264582,-0.375540841706121,0.0278443081392052,7,8,7,1,0
9,2,1,0.1,0.872162075787297,0.706016782407506,0.150324279883268,3,8,7,1,2
9,3,1,0.1,0.0506971058832025,0.706016782407506,0.105408094654386,3,12,3,2,2
9,4,1,0.1,0.229425885946018,-0.375540841706121,-0.0405351218743369,7,12,3,2,2
9,5,1,0.1,0.555949618753085,-0.375540841706121,0.379445021386549,7,8,3,1,1
9,6,1,0.1,-0.45455540698668,-0.375540841706121,1.4596631887307,7,8,7,1,2
9,7,1,0.1,0.188180782854599,-0.736060049743996,0.235360200882496,7,10,7,2,1
9,8,1,0.1,3.27468933086245,-0.375540841706121,0.250279382544235,3,8,7,2,2
9,9,1,0.1,0.0575712897317723,3.95068965474839,1.00521453293524,3,12,7,1,1
9,10,1,0.1,-0.433932855440971,0.706016782407506,0.484137985699376,7,12,3,1,0
9,11,1,0.1,1.06463922354725,-0.736060049743996,-0.00912584641798869,3,10,3,2,0
9,12,1,0.1,-0.884191897522294,-0.375540841706121,-0.374390608156431,7,8,7,1,1
9,13,1,0.1,-0.976993379477987,0.706016782407506,-0.3488662808999,3,12,3,1,1
9,14,1,0.1,0.896221719257292,-0.375540841706121,0.912228625547217,3,8,3,1,0
9,15,1,0.1,-0.578290716260937,0.706016782407506,0.0568662240670114,7,8,3,2,1
9,16,1,0.1,-0.949496644083708,-0.375540841706121,-0.0648886564688357,3,12,3,2,1
9,17,1,0.1,-0.743271128626613,-0.736060049743996,-0.20780211435098,7,10,3,2,0
9,18,1,0.1,-0.935748276386568,0.706016782407506,0.0267806553562385,3,12,7,1,0
9,19,1,0.1,0.384095022538839,-0.736060049743996,0.104607794166332,3,10,7,2,0
9,20,1,0.1,1.22618254398864,-0.375540841706121,0.294914641642989,3,12,3,1,2
9,21,1,0.1,-0.616098727428071,-0.375540841706121,1.09032250429328,3,8,7,2,1
9,22,1,0.1,-0.66421801436806,-0.375540841706121,-0.296549011793473,7,8,7,2,2
9,23,1,0.1,-1.21071563032936,-0.375540841706121,-0.081556479985574,7,8,3,1,2
9,24,1,0.1,-0.612661635503786,-0.736060049743996,3.25703082977332,7,10,7,2,0
10,1,1,0.1,0.296138490004323,-0.435642635968827,0.178905260692409,7,12,3,1,2
10,2,1,0.1,-0.863279046458227,-0.91088914793482,0.391737797517663,7,10,3,1,0
10,3,1,0.1,-0.850710834680855,0.990096899929152,-0.157659676420781,7,12,7,1,1
10,4,1,0.1,0.726599743379308,-0.435642635968827,0.00530319412271197,7,8,7,2,2
10,5,1,0.1,-0.0212088573743149,-0.435642635968827,0.029084270468402,7,12,7,2,1
10,6,1,0.1,1.78232953267854,0.990096899929152,0.0562546381242342,7,12,7,1,2
10,7,1,0.1,0.113899419232432,0.990096899929152,0.0318033059998014,3,8,3,1,0
10,8,1,0.1,0.393542131278955,-0.91088914793482,0.108995845941225,3,10,7,1,2
10,9,1,0.1,-0.341698257697296,2.41583643582713,-0.22766739955571,3,10,3,2,0
10,10,1,0.1,-0.401397263639812,-0.91088914793482,0.290103166463192,7,10,3,2,0
10,11,1,0.1,-0.0777658103724881,0.990096899929152,0.0701386902098378,7,8,7,2,0
10,12,1,0.1,0.73916795515668,-0.435642635968827,0.55080290390685,3,12,7,2,2
10,13,1,0.1,-0.674755869797649,-0.91088914793482,0.0847888406691708,7,10,3,1,1
10,14,1,0.1,-0.995245270120631,-0.435642635968827,0.150414216332122,3,8,7,2,1
10,15,1,0.1,2.75008183953617,-0.91088914793482,0.728495958049531,7,10,7,1,0
10,16,1,0.1,0.54750272555176,-0.435642635968827,-0.0283340066097,3,12,3,2,2
10,17,1,0.1,0.849139808208683,-0.435642635968827,0.19437981314726,3,8,3,2,1
10,18,1,0.1,-0.847568781736512,-0.435642635968827,0.433844213185858,3,12,3,1,2
10,19,1,0.1,-1.33772904105401,0.990096899929152,-0.358193170661478,3,12,7,1,1
10,20,1,0.1,0.054200413289916,2.41583643582713,0.391189878540689,3,10,7,2,0
10,21,1,0.1,-1.3440131469427,-0.435642635968827,-0.282152309935389,7,12,3,2,1
10,22,1,0.1,1.07536762020138,-0.435642635968827,-0.023078005908729,3,8,7,1,0
10,23,1,0.1,-0.800437987571368,-0.435642635968827,0.332930801605632,3,8,3,1,1
10,24,1,0.1,-0.772159511072281,-0.435642635968827,0.107396761795497,7,8,3,2,2
12,1,1,0.1,1.63379658227562,-0.0687084700658151,-0.272942197165844,7,8,7,2,2
12,2,1,0.1,1.03887795843342,-0.0687084700658151,0.612983658604823,3,8,7,1,2
12,3,1,0.1,0.997957629809359,-0.0687084700658151,1.49276139224122,7,12,3,2,2
12,4,1,0.1,1.58343310089215,-0.0687084700658151,1.40410838373577,3,12,7,2,2
12,5,1,0.1,-0.558588716698391,-0.893210110855586,1.20571507118378,3,10,7,2,1
12,6,1,0.1,0.946020289632659,-0.0687084700658151,0.297284153128327,7,8,3,1,0
12,7,1,0.1,1.61018870037712,-0.0687084700658151,1.99633592715234,3,8,3,2,0
12,8,1,0.1,0.340084654237832,-0.0687084700658151,2.34216756310467,3,8,3,2,1
12,9,1,0.1,0.333789219064899,-0.0687084700658151,-0.95090518716506,3,8,7,1,1
12,10,1,0.1,0.920838548940926,-0.893210110855586,0.0309914644998168,7,10,3,1,2
12,11,1,0.1,0.90352610221536,2.4047964523035,0.122952809496746,3,12,3,1,1
12,12,1,0.1,-0.234373805292328,2.4047964523035,0.224633102188901,7,12,3,1,1
12,13,1,0.1,-1.11416087070975,-0.0687084700658151,1.90693605602948,7,8,3,2,1
12,14,1,0.1,-0.324083756506627,-0.0687084700658151,0.149705653124845,3,12,7,2,0
12,15,1,0.1,-0.621543068427724,-0.0687084700658151,-2.7306160888338,7,8,7,2,0
12,16,1,0.1,0.417203735106265,-0.0687084700658151,0.210974135653406,3,12,3,2,2
12,17,1,0.1,-0.659315679465324,-0.893210110855586,-0.363998706643948,3,10,3,1,2
12,18,1,0.1,-0.846604875860088,-0.893210110855586,-0.162323052419945,3,10,3,1,0
12,19,1,0.1,-1.26997289123985,-0.893210110855586,-0.722517149714484,7,10,7,2,1
12,20,1,0.1,-1.03074635466839,-0.893210110855586,-0.229670232699164,3,10,7,1,0
12,21,1,0.1,-0.819849276375122,-0.893210110855586,-1.15224417451832,7,10,7,1,1
12,22,1,0.1,-0.936314827074387,-0.0687084700658151,0.342566243081269,7,8,7,1,2
12,23,1,0.1,-0.99454760242402,2.4047964523035,0.403396176330852,7,12,7,1,0
12,24,1,0.1,-1.31561479624362,-0.0687084700658151,0.214082951001644,7,8,3,2,0
13,1,1,0.1,0.786978041941942,3.07487454701057,0.171426975198599,7,10,7,1,1
13,2,1,0.1,0.495618884396345,-0.229468249776909,0.19576429491199,3,8,3,1,1
13,3,1,0.1,-0.376146213974209,1.42270314861683,-0.270425591420748,3,12,7,1,0
13,4,1,0.1,0.958093737643324,-0.229468249776909,-0.218666249385105,3,8,7,2,1
13,5,1,0.1,1.40669434529289,-0.229468249776909,-0.103036245067029,7,12,3,1,2
13,6,1,0.1,0.810101784604291,-0.780192049241489,0.477371342128716,7,10,3,2,2
13,7,1,0.1,1.27951376064997,-0.780192049241489,0.0244543692378844,3,10,3,2,2
13,8,1,0.1,1.39744484822795,1.42270314861683,0.223190497252376,7,12,3,1,1
13,9,1,0.1,0.49793125866258,1.42270314861683,-0.661992095914469,3,12,7,2,2
13,10,1,0.1,0.523367375591164,-0.780192049241489,-6.89647088578603,3,10,7,2,0
13,11,1,0.1,0.375375422552131,-0.229468249776909,-0.0069253325356676,7,12,3,1,0
13,12,1,0.1,1.19164353853305,-0.229468249776909,-0.318112442779786,7,12,7,2,2
13,13,1,0.1,0.363813551220956,-0.229468249776909,0.101429458430589,3,8,3,2,0
13,14,1,0.1,-0.850182938552362,-0.780192049241489,0.836355339043255,3,10,3,2,1
13,15,1,0.1,-1.11379360490314,-0.229468249776909,0.604937797816541,3,8,3,1,2
13,16,1,0.1,0.449371399071647,-0.780192049241489,-0.0505903020698446,7,10,7,1,2
13,17,1,0.1,0.0886410135390041,-0.229468249776909,-0.164636755553553,7,12,3,2,1
13,18,1,0.1,-1.7011366685268,-0.780192049241489,-0.609048174170909,3,10,3,1,0
13,19,1,0.1,-0.998174891591396,-0.229468249776909,0.0425781029665207,7,8,7,1,0
13,20,1,0.1,-0.713752856844504,1.42270314861683,-0.0815802881267972,3,12,7,1,1
13,21,1,0.1,-1.05367187398103,-0.780192049241489,0.091259938600082,3,10,7,1,2
13,22,1,0.1,-1.33809390872792,-0.229468249776909,0.314240005380359,7,12,7,2,1
13,23,1,0.1,-1.4490878735072,-0.780192049241489,0.165104300903401,7,10,7,2,0
13,24,1,0.1,-1.03054813131868,-0.229468249776909,-0.0212564365922745,7,8,3,2,0
14,2,1,0.1,-0.315219554572394,-0.268182305786454,-0.344511382053861,3,8,7,1,2
14,3,1,0.1,1.56452084710522,1.50182091240414,1.07248927183628,7,12,7,2,2
14,4,1,0.1,0.895953384652873,-0.858183378516652,-0.0523750884297453,7,10,3,1,1
14,10,1,0.1,-0.765083789141779,1.50182091240414,0.140225138475603,3,12,3,1,2
14,11,1,0.1,-0.994860598183372,-0.268182305786454,0.992958214501645,7,8,7,2,1
14,16,1,0.1,-0.456407714344939,-0.268182305786454,-0.654573990745573,7,12,7,1,1
14,17,1,0.1,-0.665421558714099,-0.858183378516652,-0.192443687570721,7,10,7,2,0
14,19,1,0.1,0.513914834680103,-0.268182305786454,-1.14068015019397,7,8,3,2,2
14,20,1,0.1,-0.986555412314399,1.50182091240414,1.36269706087451,3,12,3,1,1
14,22,1,0.1,1.71262999510191,-0.858183378516652,-0.338745230677008,7,10,3,1,0
14,24,1,0.1,-0.503470434269121,-0.858183378516652,-1.01612637009803,7,10,7,1,2
15,1,1,0.1,1.08278858340077,-0.715491385636572,-0.428775151401573,3,8,7,2,2
15,2,1,0.1,0.64626485667867,0.946295058422562,0.315202076697545,3,10,7,1,0
15,3,1,0.1,2.21932333135292,0.115401836392995,-0.305035843440856,3,12,3,2,0
15,4,1,0.1,1.31874735460191,0.115401836392995,1.91332289456956,3,12,3,1,0
15,5,1,0.1,0.249067591823422,0.115401836392995,1.78438984064933,7,12,7,1,1
15,6,1,0.1,2.44741681018068,-0.99245579297976,-0.196809081484934,3,10,3,1,2
15,7,1,0.1,-0.671171615861012,-0.715491385636572,0.309366654835506,7,8,3,1,0
15,8,1,0.1,-0.710498077727868,2.6080815024817,-1.50396350631627,3,12,7,1,1
15,9,1,0.1,1.01593359822712,-0.715491385636572,-0.306491469643176,3,8,7,1,2
15,10,1,0.1,-0.226782596765537,0.946295058422562,1.2743858576565,7,10,3,2,0
15,11,1,0.1,0.103559682916055,-0.715491385636572,0.0991573956564064,3,8,7,2,0
15,12,1,0.1,0.426036670224275,-0.715491385636572,0.311316677609307,7,8,3,1,2
15,13,1,0.1,-0.0340829336179419,-0.715491385636572,0.0136531507529601,7,8,7,1,2
15,14,1,0.1,-0.970052726049118,0.115401836392995,1.06112406312121,3,12,3,2,2
15,15,1,0.1,-1.1116279887698,0.115401836392995,-0.12880999698423,7,12,3,2,2
15,16,1,0.1,-0.66330632348764,0.115401836392995,0.104522442606499,3,12,7,2,1
15,17,1,0.1,-0.541394291700386,2.6080815024817,0.0776563781805235,3,12,3,1,1
15,18,1,0.1,-1.02117712647603,0.115401836392995,0.50873885444479,7,12,7,2,2
15,19,1,0.1,-0.266109058632393,-0.715491385636572,0.297546694727436,7,8,7,2,0
15,20,1,0.1,-0.596451338313985,-0.715491385636572,-1.25353617080831,7,8,3,2,1
15,21,1,0.1,-0.616114569247413,-0.715491385636572,0.551871722036844,3,8,3,2,1
15,22,1,0.1,-0.293637581939192,0.946295058422562,-0.271209864768456,7,10,7,2,1
15,23,1,0.1,-0.793083647648266,-0.715491385636572,0.408132559418767,7,8,3,1,1
15,24,1,0.1,-0.993648603169232,-0.715491385636572,0.320292853736844,7,8,7,1,0
16,1,1,0.1,-0.0767076766725516,-0.300796416641907,-0.201128784794986,3,12,7,2,2
16,2,1,0.1,-0.0369333258053026,-0.300796416641907,0.038670869563761,3,8,7,1,2
16,3,1,0.1,1.44202314929934,-0.300796416641907,0.135019331933493,7,12,7,2,2
16,4,1,0.1,-0.737448933936647,1.76180758318831,2.37542141964546,7,10,3,1,1
16,5,1,0.1,-0.0734607908874701,-0.300796416641907,0.113356517541087,3,12,3,2,1
16,6,1,0.1,0.620561045673711,-0.300796416641907,0.550746671049661,7,8,3,2,1
16,7,1,0.1,-0.0109582395246502,-0.300796416641907,0.241174809849424,7,8,3,2,0
16,8,1,0.1,-0.339705425264157,-0.644563749946943,0.0849671313182752,3,10,7,2,1
16,9,1,0.1,-0.334023375140264,-0.300796416641907,0.230356035644048,3,8,3,1,0
16,10,1,0.1,-1.01181078277604,0.730505583273202,-0.0873795868108654,3,12,3,1,2
16,11,1,0.1,2.18961860131437,-0.300796416641907,-0.160141448761526,7,8,7,2,1
16,12,1,0.1,-0.677381546912638,-0.644563749946943,-0.0239010105487625,7,10,3,1,2
16,13,1,0.1,0.749624755630703,-0.300796416641907,0.291796720154435,3,8,7,2,0
16,14,1,0.1,-0.898981501744454,0.730505583273202,0.32096811312469,3,12,3,2,2
16,15,1,0.1,-0.22038237266241,-0.644563749946943,-0.176608281658968,3,10,7,1,0
16,16,1,0.1,0.573481201790029,3.82441158301853,0.34599242377519,7,12,7,1,1
16,17,1,0.1,0.221194094108681,-0.644563749946943,0.703219487857872,7,10,7,2,0
16,18,1,0.1,-0.839725836166716,-0.300796416641907,0.657124470570903,7,12,7,1,0
16,19,1,0.1,-0.0702139051023885,-0.300796416641907,0.028022463938608,7,8,3,2,2
16,20,1,0.1,-0.574292923236299,0.730505583273202,1.17562251863118,3,12,3,1,1
16,21,1,0.1,2.82925510097544,-0.300796416641907,0.390384476338492,3,12,3,2,0
16,22,1,0.1,-0.585657023484085,-0.644563749946943,0.0107320609628138,7,10,3,1,0
16,23,1,0.1,-1.0183045543462,-0.300796416641907,0.144858032436258,3,8,7,1,1
16,24,1,0.1,-1.11976973513,-0.644563749946943,-0.0339760347372576,7,10,7,1,2
17,1,1,0.1,1.15396500324483,-0.25993450567827,-0.216232494800378,3,8,7,2,1
17,2,1,0.1,2.26490879391686,1.07687152352426,-0.550402382240227,7,12,7,2,1
17,3,1,0.1,0.419764882326164,-0.25993450567827,-0.739915285217995,3,8,3,2,2
17,4,1,0.1,1.66186175939697,-0.25993450567827,0.516900307290041,7,8,7,1,1
17,5,1,0.1,-0.633317252581696,-0.705536515412446,1.09049537891422,7,10,3,1,2
17,6,1,0.1,0.574062631030612,2.41367755272679,-0.874032372497459,7,10,3,1,1
17,7,1,0.1,-0.818474551027034,-0.705536515412446,1.63217665314967,3,10,3,1,2
17,8,1,0.1,-0.94705600828074,-0.705536515412446,0.481925907264191,3,10,7,2,0
17,9,1,0.1,-1.19264659163532,-0.25993450567827,0.374133651436671,7,8,3,2,0
17,10,1,0.1,1.63228802422862,-0.25993450567827,0.105488244733481,7,8,3,2,1
17,11,1,0.1,-0.875050392218665,-0.705536515412446,-0.561054917477933,3,10,3,2,0
17,12,1,0.1,-0.68860727920079,-0.25993450567827,0.137512020014753,7,8,7,1,2
17,13,1,0.1,0.620351955641947,-0.705536515412446,-0.321582933940522,3,10,7,1,1
17,14,1,0.1,-0.76318452440794,-0.705536515412446,0.135000954273034,7,10,3,2,2
17,15,1,0.1,-0.148565158735221,-0.25993450567827,-0.0437398168777696,3,12,3,1,1
17,16,1,0.1,-0.692464722918401,-0.705536515412446,-0.192208717290412,3,10,3,2,1
17,17,1,0.1,-0.00583974118360595,-0.25993450567827,-0.0281829479595562,7,8,7,2,0
17,18,1,0.1,-0.299005463722058,2.41367755272679,1.29413867628405,7,10,3,1,0
17,19,1,0.1,1.0523856520144,-0.25993450567827,-0.119783735554303,3,12,7,1,2
17,20,1,0.1,-0.439159252128598,-0.25993450567827,0.384739822133427,7,8,7,1,0
17,21,1,0.1,-0.884051094226424,2.41367755272679,0.16008665287133,3,10,3,1,0
17,22,1,0.1,0.826082287247878,-0.25993450567827,-0.906813837217241,7,8,7,2,2
17,23,1,0.1,-0.929054604265221,-0.25993450567827,0.989792725237397,3,12,7,1,0
17,24,1,0.1,-0.889194352516572,-0.25993450567827,0.0724732392069697,3,12,7,2,2
18,1,1,0.1,2.06919839577808,0.295163026345123,-0.0579479718655599,7,12,3,1,1
18,2,1,0.1,0.199849867580136,-0.885489079035371,0.0440108800309487,3,10,7,1,1
18,3,1,0.1,-0.0765580771875939,-0.885489079035371,0.11234091005539,7,10,3,2,2
18,4,1,0.1,1.84232019833867,0.295163026345123,0.0797902670757148,3,8,7,1,2
18,5,1,0.1,0.599283313776277,3.83711934248661,-0.347573673467459,3,12,3,1,1
18,6,1,0.1,0.985934889694142,0.295163026345123,-0.461817050012932,3,12,3,2,0
18,7,1,0.1,0.0256968850386183,0.295163026345123,-1.02165415967496,7,8,7,1,1
18,8,1,0.1,-0.599017024812147,0.295163026345123,0.416360418680689,7,12,3,1,2
18,9,1,0.1,-0.848263495238539,0.295163026345123,0.0257729321640795,3,8,3,1,0
18,10,1,0.1,-0.490371127446796,-0.885489079035371,-0.928952130825497,7,10,3,2,1
18,11,1,0.1,-0.298643073272648,-0.885489079035371,3.33323785692544,3,10,7,2,1
18,12,1,0.1,0.695147340863351,0.295163026345123,-1.20616226197125,7,8,3,2,0
18,13,1,0.1,0.01930594989948,-0.885489079035371,0.0975408327583152,3,10,3,2,2
18,14,1,0.1,0.271747887895441,-0.885489079035371,-0.178591000306312,7,10,7,2,1
18,15,1,0.1,-1.00004820479307,0.295163026345123,-0.174544691634714,7,12,7,2,0
18,16,1,0.1,-1.03999154941269,-0.885489079035371,-0.450966345099591,3,10,3,2,1
18,17,1,0.1,2.36477914596322,-0.885489079035371,-0.326136674525305,7,10,7,2,2
18,18,1,0.1,-0.229940520526912,0.295163026345123,-0.245635123798082,3,12,7,2,2
18,19,1,0.1,-0.522325803142488,0.295163026345123,0.140645243769253,7,8,7,1,0
18,20,1,0.1,-0.43924364633369,0.295163026345123,0.210285437273708,3,8,3,1,2
18,21,1,0.1,-1.18858079139765,0.295163026345123,0.183473755448541,3,8,7,1,0
18,22,1,0.1,-1.193373992752,0.295163026345123,-0.131794308392533,3,8,7,2,0
18,23,1,0.1,-0.189997175907298,0.295163026345123,0.731616052030811,7,8,3,1,0
18,24,1,0.1,-0.956909392603889,-0.885489079035371,-0.366967804762785,7,10,7,1,2
19,1,1,0.1,1.06182546496613,-0.978945010372561,-0.198980684780845,3,10,7,2,2
19,2,1,0.1,-0.215589337084942,1.6315750172876,0.316863286495559,7,12,7,2,0
19,3,1,0.1,2.63505186781269,-0.326315003457521,0.197786567117774,7,12,7,2,1
19,4,1,0.1,2.63300472870684,-0.326315003457521,-0.294922198152401,3,12,3,2,0
19,5,1,0.1,-0.370148339576699,1.6315750172876,0.066254592357237,3,12,7,1,1
19,6,1,0.1,0.0239259382996345,-0.326315003457521,1.46395708877727,3,12,3,1,0
19,7,1,0.1,0.334067512836073,-0.326315003457521,-0.102785397167176,7,8,3,1,1
19,8,1,0.1,-0.673124927242658,1.6315750172876,-0.325931584551649,7,12,3,1,0
19,9,1,0.1,-0.332276266118454,-0.978945010372561,0.0822898233451936,3,10,3,2,2
19,10,1,0.1,-0.217636476190793,-0.978945010372561,-0.893293100614119,7,10,3,2,2
19,11,1,0.1,1.39755627832571,-0.326315003457521,0.101556461033741,7,8,7,1,2
19,12,1,0.1,0.455872289634213,-0.326315003457521,-0.0103450241239364,7,12,3,1,2
19,13,1,0.1,-0.0241818306878659,-0.326315003457521,-0.259429267738323,3,8,3,1,2
19,14,1,0.1,-0.201259363343984,-0.326315003457521,-1.16384267464405,3,8,3,1,1
19,15,1,0.1,-0.686431331430691,1.6315750172876,0.551392311590316,3,12,7,1,0
19,16,1,0.1,-0.707926292042127,-0.326315003457521,-0.0908522156518682,7,8,3,2,1
19,17,1,0.1,-0.729421252653563,-0.978945010372561,0.0672642446596749,7,10,7,1,0
19,18,1,0.1,-0.517542355197976,-0.326315003457521,0.203629937594748,3,12,7,2,1
19,19,1,0.1,-0.954606554297182,1.6315750172876,0.559537858280955,7,12,7,1,1
19,20,1,0.1,-0.0159932742644616,-0.978945010372561,-0.0893261699120231,7,10,7,2,2
19,21,1,0.1,-0.869650281404362,-0.326315003457521,0.0914091680445788,7,12,3,2,0
19,22,1,0.1,-0.54415516357404,-0.326315003457521,-0.0535486976846309,3,12,7,2,0
19,23,1,0.1,-0.575885819714732,1.6315750172876,0.527108980932451,3,12,7,1,2
19,24,1,0.1,-0.905475215756756,-0.978945010372561,-1.30300875949671,3,10,3,2,1
20,1,1,0.1,0.0920476412209141,-0.599979131523567,0.653659426846938,7,10,3,1,2
20,2,1,0.1,1.42930688743486,-0.279990261377665,-0.577518784572905,3,12,3,1,2
20,3,1,0.1,-0.670989819035713,-0.279990261377665,-0.592294533419216,3,12,3,2,0
20,4,1,0.1,0.589632477021451,-0.599979131523567,0.246569510377589,3,10,7,1,2
20,5,1,0.1,0.771784068698434,1.63994295949775,0.119272014581336,7,10,3,1,0
20,6,1,0.1,0.582968394399123,-0.599979131523567,0.305595500181759,3,10,7,1,1
20,7,1,0.1,0.0187427323752992,1.63994295949775,-0.0148705906113905,3,10,7,1,0
20,8,1,0.1,1.27270094581013,0.679976349060042,0.80692894651156,7,12,3,1,1
20,9,1,0.1,0.30529828513543,-0.599979131523567,1.45631856799962,3,10,3,1,1
20,10,1,0.1,2.72991367922599,-0.279990261377665,0.41927461585159,3,12,3,2,2
20,11,1,0.1,-0.673211179909823,-0.279990261377665,-0.592671123005212,3,8,3,1,0
20,12,1,0.1,0.100933084717352,-0.279990261377665,0.150794670544311,3,8,3,2,1
20,13,1,0.1,0.648498540185354,-0.599979131523567,-0.0662923082926157,7,10,7,1,0
20,14,1,0.1,0.485228515938303,-0.279990261377665,0.333138900718589,3,8,7,2,1
20,15,1,0.1,0.785112233943091,-0.599979131523567,-0.153734237169311,7,10,3,2,1
20,16,1,0.1,-1.04639980676023,3.55987618037316,-0.596930771285658,7,12,7,1,1
20,17,1,0.1,-1.11637267429468,0.679976349060042,-1.91550889473417,7,12,7,2,1
20,18,1,0.1,-0.887572504261393,-0.279990261377665,0.027411750421404,7,12,3,2,2
20,19,1,0.1,-0.812046234541669,-0.279990261377665,0.0438581896935943,7,12,7,1,2
20,20,1,0.1,-1.06639205462721,-0.279990261377665,0.416442334713576,7,12,3,2,0
20,21,1,0.1,-1.04862116763433,-0.599979131523567,-0.292348211355883,7,10,7,2,2
20,22,1,0.1,-1.15635717002865,-0.279990261377665,0.85476845672511,3,8,7,2,0
20,23,1,0.1,-0.492170268669895,-0.599979131523567,0.287706223067783,3,10,7,2,2
20,24,1,0.1,-0.842034606342148,-0.599979131523567,0.366781685653533,7,10,7,2,0
21,1,1,0.1,1.48226186016653,-0.435494170355693,-1.05175323569522,3,12,7,2,2
21,2,1,0.1,1.35116110599867,-0.435494170355693,1.9780027987794,3,8,7,1,2
21,3,1,0.1,0.593690081917666,-0.435494170355693,0.310561022827767,7,12,7,2,2
21,4,1,0.1,1.70367646720559,2.17747085177846,-0.131607918020156,7,10,3,1,1
21,5,1,0.1,1.64249611526059,-0.435494170355693,0.138921653087059,3,12,3,2,1
21,6,1,0.1,1.73280996813178,-0.435494170355693,1.80646775934702,7,8,3,2,1
21,7,1,0.1,-0.830938113373136,-0.435494170355693,0.733189511448969,7,8,3,2,0
21,8,1,0.1,-0.868811664577186,2.17747085177846,-0.779599853060085,3,10,7,2,1
21,9,1,0.1,0.748097636826485,-0.435494170355693,0.283623821723525,3,8,3,1,0
21,10,1,0.1,-0.0122867373471331,-0.435494170355693,0.0924089129557765,3,12,3,1,2
21,11,1,0.1,0.0314135140421553,-0.435494170355693,-0.173984624822635,7,8,7,2,1
21,12,1,0.1,-0.428895800591682,-0.870988340711385,0.0795059577216116,7,10,3,1,2
21,13,1,0.1,-0.297795046423817,-0.435494170355693,-0.0876018355570127,3,8,7,2,0
21,14,1,0.1,-0.70275070929789,-0.435494170355693,0.654942166938527,3,12,3,2,2
21,15,1,0.1,-0.679443908556936,-0.870988340711385,-2.91535381162687,3,10,7,1,0
21,16,1,0.1,-0.423069100406444,0.870988340711385,0.882405735391538,7,12,7,1,1
21,17,1,0.1,-0.676530558464317,-0.870988340711385,-1.82574215674653,7,10,7,2,0
21,18,1,0.1,0.520856329602185,-0.435494170355693,-0.144546018558387,7,12,7,1,0
21,19,1,0.1,-1.04943937031958,0.870988340711385,-3.61440681948917,7,8,3,2,2
21,21,1,0.1,-1.08148622133839,0.870988340711385,0.969423976320692,3,12,3,2,0
21,22,1,0.1,-1.11061972226458,2.17747085177846,0.668063592891103,7,10,3,1,0
21,23,1,0.1,-0.714404109668367,-0.435494170355693,-0.195879997537148,3,8,7,1,1
21,24,1,0.1,-0.929992016522189,-0.870988340711385,0.753077373446847,7,10,7,1,2
22,1,1,0.1,0.0951742196796061,-0.419322312840655,-2.68102701433112,7,8,7,1,1
22,2,1,0.1,0.408982923028798,1.0273396664596,0.180354910156665,3,12,7,2,2
22,3,1,0.1,3.29831915508538,1.0273396664596,0.789646935583252,3,12,3,1,0
22,4,1,0.1,-0.28751932099014,-0.419322312840655,1.16616142763848,3,8,3,1,2
22,5,1,0.1,0.183193734033648,-0.419322312840655,-0.253954048281242,7,12,3,1,1
22,6,1,0.1,-0.670212861659885,-0.419322312840655,0.325106304610767,7,8,7,2,2
22,7,1,0.1,0.711310820157897,-0.901542972607407,0.438591503175647,7,10,3,2,0
22,8,1,0.1,-0.773540117640717,-0.419322312840655,0.145917874015527,7,12,3,2,1
22,9,1,0.1,-0.624289636779516,1.0273396664596,0.655704430947695,7,12,7,1,2
22,10,1,0.1,1.23560097087545,2.47400164575986,0.450989296357576,3,10,3,1,1
22,11,1,0.1,0.0377701885791443,-0.419322312840655,-0.137642247988381,7,8,3,1,0
22,12,1,0.1,-0.0502493257748972,-0.901542972607407,0.5127833211406,3,10,3,2,0
22,13,1,0.1,0.477867760349352,-0.419322312840655,0.196227366363893,7,8,7,1,0
22,14,1,0.1,-1.19067607697074,-0.419322312840655,0.158678826033348,3,8,3,2,2
22,15,1,0.1,1.12844677948792,-0.419322312840655,0.023620077497059,3,12,7,2,0
22,16,1,0.1,-0.448250608071433,2.47400164575986,-0.772540530109505,7,10,7,2,1
22,17,1,0.1,-1.08734882098991,-0.419322312840655,-0.487759668126696,7,8,3,1,2
22,18,1,0.1,0.864388236425795,1.0273396664596,0.276578044129083,3,12,3,2,1
22,19,1,0.1,-0.635770442999608,-0.901542972607407,-0.238715964869655,3,10,7,1,2
22,21,1,0.1,-0.727616892760347,-0.901542972607407,-0.431709508184512,7,10,7,2,0
22,22,1,0.1,-0.90365592146843,-0.419322312840655,-0.376405577942184,7,8,3,2,2
22,23,1,0.1,-0.597501088932634,-0.419322312840655,-0.0268764934593117,3,12,7,2,1
22,24,1,0.1,-0.444423672664735,-0.419322312840655,0.347491287296885,3,8,7,1,1
1,1,1,0.5,2.28434771725881,-0.255609437163093,-0.143264617093736,7,8,3,1,0
1,3,1,0.5,-0.171026510066587,-0.843511142638205,-0.0644455454672445,3,10,3,1,1
1,4,1,0.5,1.60070853734751,1.50809567926225,-1.20597170900591,3,12,3,1,2
1,5,1,0.5,-0.385782273389508,-0.255609437163093,1.50152363641069,7,12,3,1,2
1,6,1,0.5,0.0186744142019933,-0.255609437163093,0.199954633881626,7,12,3,2,0
1,7,1,0.5,-0.0672278911271752,-0.255609437163093,0.131488425082815,7,12,7,2,0
1,8,1,0.5,-0.471684578718677,-0.255609437163093,-0.136140253244096,3,12,3,2,0
1,9,1,0.5,-0.428733426054093,-0.255609437163093,-0.135170364359033,3,8,7,2,0
1,10,1,0.5,-0.740129282872328,-0.255609437163093,1.543102111714,7,8,3,2,2
1,11,1,0.5,-0.840348639089692,-0.843511142638205,0.555048753859571,7,10,7,1,1
1,12,1,0.5,-0.718653706540036,-0.255609437163093,0.221978838411722,7,8,7,1,0
1,13,1,0.5,-0.16386798462249,1.50809567926225,0.377271919143682,3,12,7,1,0
1,14,1,0.5,-0.919092418974763,-0.255609437163093,-0.684957789963371,7,8,3,1,1
1,15,1,0.5,1.10677028170479,-0.843511142638205,0.395716949570552,3,10,7,1,2
1,16,1,0.5,0.240588702969012,-0.843511142638205,-0.234935504574717,3,10,7,2,2
1,17,1,0.5,2.69954219301646,1.50809567926225,-0.729220051184791,7,12,7,1,2
1,18,1,0.5,0.430289627237592,-0.255609437163093,0.415200563116872,7,8,7,2,1
1,19,1,0.5,-0.679281816597501,-0.255609437163093,1.73764491788937,7,8,3,2,1
1,20,1,0.5,-0.546849095881699,-0.843511142638205,0.200333905106821,7,10,7,2,2
1,21,1,0.5,-0.443050476942287,-0.255609437163093,0.99850843553033,3,8,3,2,2
1,22,1,0.5,-0.29987996806034,-0.255609437163093,2.161186872665,3,8,3,2,1
1,23,1,0.5,-0.589800248546284,3.27180079568758,0.0866730602623549,3,10,3,1,0
1,24,1,0.5,-0.915513156252714,-0.255609437163093,-0.058764112161616,3,8,7,1,1
2,1,1,0.5,0.464088670255891,-0.420558293861036,-0.0113997412626887,7,12,3,1,2
2,2,1,0.5,1.02587331658995,1.53300281310635,0.0811946787285105,7,10,3,1,0
2,3,1,0.5,0.830743635510334,3.48656392007375,0.708907414867211,7,12,7,1,1
2,4,1,0.5,1.23673926227276,-0.420558293861036,0.226153465179924,7,8,7,2,2
2,5,1,0.5,-0.0221619059828328,-0.420558293861036,-0.259525270910604,7,12,7,2,1
2,6,1,0.5,0.674954615938704,0.556222259622659,0.221507353965206,7,12,7,1,2
2,7,1,0.5,1.43029531689206,-0.420558293861036,0.163757166519092,3,8,3,1,0
2,8,1,0.5,1.83943819657513,-0.746151811688934,-0.352036401450379,3,10,7,1,2
2,9,1,0.5,0.0816974403982539,-0.746151811688934,-0.00961416724673328,3,10,3,2,0
2,10,1,0.5,-0.402979509380151,-0.746151811688934,0.171227547905467,7,10,3,2,0
2,11,1,0.5,-0.0945487231575296,-0.420558293861036,-0.191625843861695,7,8,7,2,0
2,12,1,0.5,0.169820522176146,0.556222259622659,1.06581718253892,3,12,7,2,2
2,13,1,0.5,-0.989942179079322,1.53300281310635,0.0348749276036261,7,10,3,1,1
2,14,1,0.5,1.68050192408286,-0.420558293861036,-0.227974209489072,3,8,7,2,1
2,15,1,0.5,-1.0607553697937,-0.746151811688934,0.19858914511614,7,10,7,1,0
2,16,1,0.5,-0.612271828602644,-0.420558293861036,-0.200204672506156,3,12,3,2,2
2,17,1,0.5,0.475104055478128,0.556222259622659,1.04204924290854,3,8,3,2,1
2,18,1,0.5,-0.115005867141683,-0.420558293861036,0.0896300069836495,3,12,3,1,2
2,19,1,0.5,-0.706689416221813,0.556222259622659,0.0621579024327457,3,12,7,1,1
2,20,1,0.5,-1.42268945566718,-0.746151811688934,0.396776694022811,3,10,7,2,0
2,21,1,0.5,-0.635876225507436,-0.420558293861036,0.503217114186837,7,12,3,2,1
2,22,1,0.5,-1.38649604707984,-0.420558293861036,0.0428478735981042,3,8,7,1,0
2,23,1,0.5,-1.20080812476213,-0.420558293861036,0.242330486154961,3,8,3,1,1
2,24,1,0.5,-1.25903230379396,-0.420558293861036,0.808387140389381,7,8,3,2,2
3,1,1,0.5,3.2587883326523,-0.313103974450949,-0.529817587836689,7,8,3,2,0
3,2,1,0.5,0.338950201642425,1.29714503701107,-0.202310957666338,3,8,3,1,0
3,3,1,0.5,0.773530760676452,-0.313103974450949,-0.544941441422902,3,8,7,2,2
3,4,1,0.5,-0.231436782089736,1.29714503701107,1.29468075537633,7,8,3,1,1
3,5,1,0.5,-0.557372201365257,-0.313103974450949,-0.611281427048296,7,8,7,1,1
3,6,1,0.5,-0.163533569740669,2.90739404847309,0.0309227241360032,7,10,7,2,1
3,7,1,0.5,-0.38761417049259,-0.849853644938288,0.460227111941635,7,10,3,1,2
3,8,1,0.5,-0.28575935196899,1.29714503701107,-0.535675038610561,7,8,7,2,0
3,9,1,0.5,-0.143162606035949,1.29714503701107,0.542899934348356,3,12,7,1,1
3,10,1,0.5,-0.808614087056804,-0.849853644938288,0.506294548536966,7,10,3,2,2
3,11,1,0.5,-0.964791475459657,-0.849853644938288,0.274343466291445,3,10,7,1,0
3,12,1,0.5,-0.849356014466244,1.29714503701107,0.969140301418578,3,12,3,1,1
3,13,1,0.5,-0.50983995272091,-0.313103974450949,-0.512246562270528,3,12,7,2,0
3,14,1,0.5,0.522288874984905,-0.849853644938288,0.348667759903571,3,10,3,2,2
3,15,1,0.5,-0.910468905580404,-0.849853644938288,0.609853688435918,7,10,3,2,1
3,16,1,0.5,-0.217856139619923,-0.313103974450949,0.414517421504684,3,8,3,1,2
3,17,1,0.5,-0.231436782089736,-0.313103974450949,0.172815964883664,7,8,3,1,0
3,18,1,0.5,0.0605470310112509,-0.313103974450949,-0.146632089384867,3,8,3,2,0
3,19,1,0.5,0.0130147823669042,-0.313103974450949,-0.334336273300289,3,8,7,1,2
3,20,1,0.5,0.705627548327385,-0.313103974450949,-0.256716190952684,7,12,7,2,2
3,21,1,0.5,0.352530844112238,-0.313103974450949,0.422389306169568,3,12,7,2,1
3,22,1,0.5,2.17233693506723,-0.849853644938288,-0.084280761946123,3,10,3,2,1
3,23,1,0.5,-1.10059790015779,-0.849853644938288,-0.101304242160728,7,10,7,1,2
3,24,1,0.5,-0.83577537199643,-0.313103974450949,0.336158214204138,7,12,7,1,0
4,1,1,0.5,-0.00888346395525166,-0.0591726335413945,-0.259227866110141,3,8,7,2,1
4,2,1,0.5,2.30747976237662,-0.0591726335413945,-0.0892545311926806,7,12,7,2,1
4,3,1,0.5,1.46799241860534,-0.0591726335413945,-0.0581458001660694,3,8,3,2,2
4,4,1,0.5,0.81505781789434,-0.0591726335413945,-0.142772237372791,7,8,7,1,1
4,5,1,0.5,0.370884620131757,-0.68048528572603,0.0564628332383108,7,10,3,1,2
4,6,1,0.5,0.0954972375189553,3.66870327956642,0.00877191147734889,7,10,3,1,1
4,7,1,0.5,-0.144356289272839,-0.68048528572603,0.120849975737747,3,10,3,1,2
4,9,1,0.5,-1.33029872729894,-0.0591726335413945,-0.179566839598133,7,8,3,2,0
4,10,1,0.5,-1.01271489089869,-0.0591726335413945,-0.160163124948669,7,8,3,2,1
4,11,1,0.5,-0.424185403863267,-0.68048528572603,0.134374395591891,3,10,3,2,0
4,12,1,0.5,0.21320313492604,-0.0591726335413945,-0.0665476609768452,7,8,7,1,2
4,13,1,0.5,-0.684026724554378,-0.68048528572603,0.120460233240289,3,10,7,1,1
4,14,1,0.5,-0.746210972241139,-0.68048528572603,0.0377464032085511,7,10,3,2,2
4,15,1,0.5,0.470823589628338,1.80476532301251,-0.336901260151002,3,12,3,1,1
4,16,1,0.5,0.262062186679924,-0.68048528572603,0.113310631541745,3,10,3,2,1
4,17,1,0.5,0.981622767055308,-0.0591726335413945,-0.126203187249598,7,8,7,2,0
4,19,1,0.5,-1.1348625202834,-0.0591726335413945,-0.323619171750087,3,12,7,1,2
4,21,1,0.5,1.17927984005966,-0.68048528572603,-0.109487756438465,3,10,3,1,0
4,22,1,0.5,-1.33029872729894,-0.0591726335413945,-0.00913292616550694,7,8,7,2,2
4,23,1,0.5,0.0444173197762583,-0.0591726335413945,0.0700128033289637,3,12,7,1,0
4,24,1,0.5,-1.3924829749857,-0.0591726335413945,0.750620186219854,3,12,7,2,2
5,1,1,0.5,2.16756348179368,-0.395008187929654,-0.0585433029697838,7,8,7,2,2
5,2,1,0.5,1.08347567432217,-0.395008187929654,0.0164065627125629,3,8,7,1,2
5,3,1,0.5,0.18792487684571,-0.395008187929654,0.0791616822886387,7,12,3,2,2
5,4,1,0.5,-0.532555839921067,0.371772412169085,-0.241292892315829,3,12,7,2,2
5,5,1,0.5,1.28547961360258,-0.6506017212959,-0.304831443122228,3,10,7,2,1
5,7,1,0.5,0.807403623972285,-0.395008187929654,-0.163719837159576,3,8,3,2,0
5,9,1,0.5,0.120590230418908,-0.395008187929654,-0.845294936839374,3,8,7,1,1
5,10,1,0.5,-0.956764112409917,-0.6506017212959,-0.461122410458243,7,10,3,1,2
5,11,1,0.5,2.44363553214356,2.6721142124653,-1.60958965895843,3,12,3,1,1
5,12,1,0.5,0.369728422198074,2.6721142124653,0.341680846627017,7,12,3,1,1
5,13,1,0.5,0.107123301133548,-0.395008187929654,-0.204265921068397,7,8,3,2,1
5,14,1,0.5,-0.24301686028582,-0.395008187929654,0.743652142514067,3,12,7,2,0
5,15,1,0.5,-0.357485759211383,-0.395008187929654,0.812079192286915,7,8,7,2,0
5,16,1,0.5,-1.07123301133548,-0.395008187929654,2.37568180620067,3,12,3,2,2
5,17,1,0.5,-1.165501516333,-0.6506017212959,-1.07375580960716,3,10,3,1,2
5,18,1,0.5,-0.559489698491788,1.13855301226782,0.105630014158118,3,10,3,1,0
5,19,1,0.5,-0.344018829926022,-0.6506017212959,-0.0920743241863502,7,10,7,2,1
5,20,1,0.5,-0.707625920630751,-0.6506017212959,0.48718996401267,3,10,7,1,0
5,21,1,0.5,-0.552756233849107,1.13855301226782,0.151376986159135,7,10,7,1,1
5,22,1,0.5,-0.822094819556314,-0.395008187929654,-0.231152920485557,7,8,7,1,2
5,23,1,0.5,-0.465221193494265,-0.395008187929654,1.1176961173978,7,12,7,1,0
5,24,1,0.5,-0.795160960985593,-0.395008187929654,-0.75935748405493,7,8,3,2,0
6,1,1,0.5,0.233148016104067,-0.401593372583645,-0.235601328730216,3,8,7,2,1
6,2,1,0.5,2.25361710552058,0.912712210417374,0.0254948172133162,7,12,3,2,1
6,3,1,0.5,0.111390490191631,0.912712210417374,0.0455280792848349,3,8,7,1,0
6,4,1,0.5,0.813702016469159,-0.401593372583645,-0.21268251076748,3,8,7,2,0
6,5,1,0.5,-0.336818373312119,-0.839695233583985,0.105977009069082,7,10,7,2,2
6,6,1,0.5,2.91004898435284,2.22701779341839,-0.00469939507092038,7,10,3,1,1
6,7,1,0.5,-0.0915387196624291,-0.401593372583645,0.00574964579264845,3,8,3,1,2
6,8,1,0.5,0.0690400463960008,-0.401593372583645,0.0833014268894167,3,8,7,1,2
6,9,1,0.5,0.40784359676104,-0.401593372583645,0.184759576394762,7,12,7,1,0
6,10,1,0.5,-0.66503431272825,-0.839695233583985,0.309708160459869,7,10,7,1,2
6,11,1,0.5,-0.430342270027468,-0.401593372583645,-0.195708223029427,7,12,7,2,0
6,12,1,0.5,-0.864434318932674,-0.839695233583985,0.206882259594308,3,10,7,2,2
6,13,1,0.5,-0.118007747034698,-0.401593372583645,0.211365042547578,3,8,3,1,0
6,14,1,0.5,1.42954805333061,-0.839695233583985,-0.113136346074273,3,10,3,2,0
6,15,1,0.5,-0.779733431341415,-0.401593372583645,0.0671439149413468,3,12,3,2,1
6,16,1,0.5,0.317848903695326,-0.401593372583645,-0.0982719110531959,7,8,3,2,2
6,17,1,0.5,-1.05677591783783,0.912712210417374,0.444806252415374,3,12,7,1,1
6,18,1,0.5,-0.250352883896041,-0.401593372583645,-0.241927607617562,3,12,3,2,2
6,19,1,0.5,-0.966781224772113,2.22701779341839,-0.203079648316347,3,10,3,1,1
6,20,1,0.5,-0.91031396637794,2.22701779341839,-0.115534831859871,7,10,7,1,1
6,21,1,0.5,-0.403873242655199,-0.839695233583985,0.00407557294789781,7,10,3,1,0
6,22,1,0.5,-0.959722817472841,-0.401593372583645,0.637423249294282,7,12,3,1,2
6,23,1,0.5,-0.423283862728196,-0.401593372583645,0.224541224126966,7,8,7,2,1
6,24,1,0.5,-0.289174124042035,-0.401593372583645,0.381693864513567,7,12,3,2,0
7,1,1,0.5,1.46706724705617,-0.290957186981324,-0.766959784362331,7,8,7,2,2
7,2,1,0.5,3.76560498367291,-0.290957186981324,0.4318779358786,3,8,7,1,2
7,3,1,0.5,0.939971510647681,-0.290957186981324,0.638343280523704,7,12,3,2,2
7,4,1,0.5,0.085942975707351,-0.290957186981324,0.33083816632286,3,12,7,2,2
7,6,1,0.5,-0.254334018682937,-0.290957186981324,1.49298312749518,7,8,3,1,0
7,7,1,0.5,-0.457833005524187,-0.290957186981324,0.160017803609315,3,8,3,2,0
7,8,1,0.5,-0.368871699801236,-0.290957186981324,0.537632404120753,3,8,3,2,1
7,9,1,0.5,0.065926681919687,-0.290957186981324,0.576109078930973,3,8,7,1,1
7,10,1,0.5,-0.331063144868982,2.76409327632257,0.173191816887768,7,10,3,1,2
7,12,1,0.5,-0.00524236265867385,1.23656804467062,1.36618187654939,7,12,3,1,1
7,13,1,0.5,-0.510097772636421,-0.290957186981324,0.740734717844083,7,8,3,2,1
7,14,1,0.5,-0.472289217704167,-0.290957186981324,0.525839571470112,3,12,7,2,0
7,15,1,0.5,-0.541234229639454,-0.290957186981324,0.30006138372425,7,8,7,2,0
7,16,1,0.5,-0.531226082745622,-0.290957186981324,0.487708292049986,3,12,3,2,2
7,17,1,0.5,-0.294366606258265,-0.800132264198639,0.581585818996074,3,10,3,1,2
7,19,1,0.5,-0.425584532199618,-0.800132264198639,0.763477359613647,7,10,7,2,1
7,20,1,0.5,-0.446712842308818,-0.800132264198639,0.633427626743852,3,10,7,1,0
7,21,1,0.5,-0.430032597485765,2.76409327632257,1.71854711897828,7,10,7,1,1
7,22,1,0.5,-0.401120173125806,-0.290957186981324,1.15798256021133,7,8,7,1,2
7,23,1,0.5,-0.516769870565642,-0.290957186981324,-0.205534760923029,7,12,7,1,0
7,24,1,0.5,-0.337735242798203,-0.290957186981324,1.88594465998552,7,8,3,2,0
8,1,1,0.5,1.74430280251217,-0.81401415689105,0.185763358613171,3,10,7,1,1
8,2,1,0.5,1.95922110775353,-0.222003860970287,0.000763560670935823,3,8,3,2,0
8,3,1,0.5,1.11011763950489,-0.81401415689105,-4.74660864909195,7,10,3,2,2
8,4,1,0.5,1.51881474455403,-0.81401415689105,0.197436409569886,7,10,3,2,0
8,5,1,0.5,0.070758622354054,-0.222003860970287,-0.287746596726997,3,8,3,1,1
8,6,1,0.5,-0.0490319084362115,1.554027026792,0.142045816071552,7,12,7,2,0
8,7,1,0.5,1.08193163226012,-0.222003860970287,-0.0094563777355808,7,8,7,1,1
8,8,1,0.5,1.17353615580562,-0.222003860970287,0.105802144167459,3,8,3,2,2
8,9,1,0.5,-1.06020491834228,-0.222003860970287,-1.05072210224625,3,8,7,1,2
8,10,1,0.5,-0.817100605856149,-0.222003860970287,-0.0472167888440911,7,8,3,1,0
8,11,1,0.5,-0.891088874873666,-0.222003860970287,0.094180134887422,3,8,7,1,0
8,12,1,0.5,0.204642156766704,-0.222003860970287,0.470048149887927,7,8,7,1,0
8,13,1,0.5,-0.426019755334988,-0.222003860970287,0.479594058137824,7,8,3,1,1
8,14,1,0.5,-0.820623856761745,-0.222003860970287,0.0890215721502303,3,12,7,2,2
8,15,1,0.5,-0.915751631212838,-0.81401415689105,-0.244040806543511,3,10,7,2,1
8,16,1,0.5,0.704943785361342,-0.222003860970287,-0.140459921627821,7,12,7,2,2
8,17,1,0.5,0.641525269060613,3.3300579145543,1.30647706291955,7,10,7,2,1
8,18,1,0.5,-0.993263151135951,1.554027026792,-0.419196026053825,3,12,3,1,2
8,19,1,0.5,-0.140636431981709,-0.222003860970287,-0.00576422815911966,7,12,3,2,1
8,20,1,0.5,-1.05315841653108,-0.222003860970287,0.0115878409027614,3,12,3,1,0
8,21,1,0.5,-0.898135376684858,1.554027026792,-0.379417922895699,7,8,7,1,2
8,22,1,0.5,-0.947460889363202,-0.81401415689105,-0.4258118159269,3,10,3,2,1
8,23,1,0.5,-0.95803064207999,-0.81401415689105,0.536175227777287,7,10,3,1,2
8,24,1,0.5,-0.239287457338398,-0.222003860970287,-0.536109443801745,3,12,7,2,0
9,1,1,0.5,0.260359713264582,-0.375540841706121,0.0144445234937552,7,8,7,1,0
9,2,1,0.5,0.872162075787297,0.706016782407506,0.0950340705870003,3,8,7,1,2
9,3,1,0.5,0.0506971058832025,0.706016782407506,0.203620649123914,3,12,3,2,2
9,4,1,0.5,0.229425885946018,-0.375540841706121,-0.031564634438452,7,12,3,2,2
9,5,1,0.5,0.555949618753085,-0.375540841706121,0.226475068542868,7,8,3,1,1
9,6,1,0.5,-0.45455540698668,-0.375540841706121,0.968730016752492,7,8,7,1,2
9,7,1,0.5,0.188180782854599,-0.736060049743996,0.276621682139138,7,10,7,2,1
9,8,1,0.5,3.27468933086245,-0.375540841706121,0.328071136015845,3,8,7,2,2
9,9,1,0.5,0.0575712897317723,3.95068965474839,0.45233211442681,3,12,7,1,1
9,10,1,0.5,-0.433932855440971,0.706016782407506,0.495082197196117,7,12,3,1,0
9,11,1,0.5,1.06463922354725,-0.736060049743996,-0.0637991603455814,3,10,3,2,0
9,12,1,0.5,-0.884191897522294,-0.375540841706121,-0.260600727379804,7,8,7,1,1
9,13,1,0.5,-0.976993379477987,0.706016782407506,-0.305295187260179,3,12,3,1,1
9,14,1,0.5,0.896221719257292,-0.375540841706121,0.637537516412982,3,8,3,1,0
9,15,1,0.5,-0.578290716260937,0.706016782407506,-0.0248923229341211,7,8,3,2,1
9,16,1,0.5,-0.949496644083708,-0.375540841706121,-0.121776212231363,3,12,3,2,1
9,17,1,0.5,-0.743271128626613,-0.736060049743996,-0.200373711551068,7,10,3,2,0
9,18,1,0.5,-0.935748276386568,0.706016782407506,-0.0756498299600081,3,12,7,1,0
9,19,1,0.5,0.384095022538839,-0.736060049743996,0.0805501632082141,3,10,7,2,0
9,20,1,0.5,1.22618254398864,-0.375540841706121,0.207616239645115,3,12,3,1,2
9,21,1,0.5,-0.616098727428071,-0.375540841706121,0.523015296832923,3,8,7,2,1
9,22,1,0.5,-0.66421801436806,-0.375540841706121,-0.282595318865518,7,8,7,2,2
9,23,1,0.5,-1.21071563032936,-0.375540841706121,0.24470400765818,7,8,3,1,2
9,24,1,0.5,-0.612661635503786,-0.736060049743996,2.74033497529941,7,10,7,2,0
10,1,1,0.5,0.296138490004323,-0.435642635968827,0.245970559791191,7,12,3,1,2
10,2,1,0.5,-0.863279046458227,-0.91088914793482,0.287485638225182,7,10,3,1,0
10,3,1,0.5,-0.850710834680855,0.990096899929152,-0.203339187869303,7,12,7,1,1
10,4,1,0.5,0.726599743379308,-0.435642635968827,0.0154684850679702,7,8,7,2,2
10,5,1,0.5,-0.0212088573743149,-0.435642635968827,0.106537017653053,7,12,7,2,1
10,6,1,0.5,1.78232953267854,0.990096899929152,0.1984856592218,7,12,7,1,2
10,7,1,0.5,0.113899419232432,0.990096899929152,0.0314061879302703,3,8,3,1,0
10,8,1,0.5,0.393542131278955,-0.91088914793482,0.0486612889498127,3,10,7,1,2
10,9,1,0.5,-0.341698257697296,2.41583643582713,-0.151749181491155,3,10,3,2,0
10,10,1,0.5,-0.401397263639812,-0.91088914793482,0.357097618843956,7,10,3,2,0
10,11,1,0.5,-0.0777658103724881,0.990096899929152,0.0422858659177652,7,8,7,2,0
10,12,1,0.5,0.73916795515668,-0.435642635968827,0.808439801904059,3,12,7,2,2
10,13,1,0.5,-0.674755869797649,-0.91088914793482,-0.0669056192301757,7,10,3,1,1
10,14,1,0.5,-0.995245270120631,-0.435642635968827,0.229470633772187,3,8,7,2,1
10,15,1,0.5,2.75008183953617,-0.91088914793482,0.561258836410857,7,10,7,1,0
10,16,1,0.5,0.54750272555176,-0.435642635968827,0.117482682163853,3,12,3,2,2
10,17,1,0.5,0.849139808208683,-0.435642635968827,0.454983278479957,3,8,3,2,1
10,18,1,0.5,-0.847568781736512,-0.435642635968827,0.796447804979744,3,12,3,1,2
10,19,1,0.5,-1.33772904105401,0.990096899929152,-0.353006363790405,3,12,7,1,1
10,20,1,0.5,0.054200413289916,2.41583643582713,0.271878175422524,3,10,7,2,0
10,21,1,0.5,-1.3440131469427,-0.435642635968827,-0.165635008505991,7,12,3,2,1
10,22,1,0.5,1.07536762020138,-0.435642635968827,0.0702044489059766,3,8,7,1,0
10,23,1,0.5,-0.800437987571368,-0.435642635968827,0.565882717920474,3,8,3,1,1
10,24,1,0.5,-0.772159511072281,-0.435642635968827,0.0567293651094831,7,8,3,2,2
12,1,1,0.5,1.63379658227562,-0.0687084700658151,-0.627402544812865,7,8,7,2,2
12,2,1,0.5,1.03887795843342,-0.0687084700658151,0.579138789632124,3,8,7,1,2
12,3,1,0.5,0.997957629809359,-0.0687084700658151,0.712001336608102,7,12,3,2,2
12,4,1,0.5,1.58343310089215,-0.0687084700658151,0.763214078070465,3,12,7,2,2
12,5,1,0.5,-0.558588716698391,-0.893210110855586,0.619327660264402,3,10,7,2,1
12,6,1,0.5,0.946020289632659,-0.0687084700658151,0.140755492527956,7,8,3,1,0
12,7,1,0.5,1.61018870037712,-0.0687084700658151,1.08886786934022,3,8,3,2,0
12,8,1,0.5,0.340084654237832,-0.0687084700658151,1.23251739433825,3,8,3,2,1
12,9,1,0.5,0.333789219064899,-0.0687084700658151,-0.72777461631732,3,8,7,1,1
12,10,1,0.5,0.920838548940926,-0.893210110855586,-0.0334384211555769,7,10,3,1,2
12,11,1,0.5,0.90352610221536,2.4047964523035,0.162054228148304,3,12,3,1,1
12,12,1,0.5,-0.234373805292328,2.4047964523035,0.102327361131615,7,12,3,1,1
12,13,1,0.5,-1.11416087070975,-0.0687084700658151,0.849582113084742,7,8,3,2,1
12,14,1,0.5,-0.324083756506627,-0.0687084700658151,0.305629213748855,3,12,7,2,0
12,15,1,0.5,-0.621543068427724,-0.0687084700658151,-2.01021820438262,7,8,7,2,0
12,16,1,0.5,0.417203735106265,-0.0687084700658151,0.150942437394213,3,12,3,2,2
12,17,1,0.5,-0.659315679465324,-0.893210110855586,-0.214753096529957,3,10,3,1,2
12,18,1,0.5,-0.846604875860088,-0.893210110855586,-0.130135283817953,3,10,3,1,0
12,19,1,0.5,-1.26997289123985,-0.893210110855586,-0.340320694827441,7,10,7,2,1
12,20,1,0.5,-1.03074635466839,-0.893210110855586,-0.166976296200933,3,10,7,1,0
12,21,1,0.5,-0.819849276375122,-0.893210110855586,-0.34954244603759,7,10,7,1,1
12,22,1,0.5,-0.936314827074387,-0.0687084700658151,0.484439948904549,7,8,7,1,2
12,23,1,0.5,-0.99454760242402,2.4047964523035,0.232468473438093,7,12,7,1,0
12,24,1,0.5,-1.31561479624362,-0.0687084700658151,0.211325309485574,7,8,3,2,0
13,1,1,0.5,0.786978041941942,3.07487454701057,0.10649821686869,7,10,7,1,1
13,2,1,0.5,0.495618884396345,-0.229468249776909,0.251141476076369,3,8,3,1,1
13,3,1,0.5,-0.376146213974209,1.42270314861683,-0.17829179941424,3,12,7,1,0
13,4,1,0.5,0.958093737643324,-0.229468249776909,-0.151226694446779,3,8,7,2,1
13,5,1,0.5,1.40669434529289,-0.229468249776909,-0.175588182460525,7,12,3,1,2
13,6,1,0.5,0.810101784604291,-0.780192049241489,0.322103457700497,7,10,3,2,2
13,7,1,0.5,1.27951376064997,-0.780192049241489,0.0430986109597484,3,10,3,2,2
13,8,1,0.5,1.39744484822795,1.42270314861683,0.180361322591976,7,12,3,1,1
13,9,1,0.5,0.49793125866258,1.42270314861683,-0.468579606096607,3,12,7,2,2
13,10,1,0.5,0.523367375591164,-0.780192049241489,-5.94066126609868,3,10,7,2,0
13,11,1,0.5,0.375375422552131,-0.229468249776909,-0.000581329039857643,7,12,3,1,0
13,12,1,0.5,1.19164353853305,-0.229468249776909,-0.348034037309875,7,12,7,2,2
13,13,1,0.5,0.363813551220956,-0.229468249776909,0.00287699777501071,3,8,3,2,0
13,14,1,0.5,-0.850182938552362,-0.780192049241489,0.549805008412017,3,10,3,2,1
13,15,1,0.5,-1.11379360490314,-0.229468249776909,0.355618340391118,3,8,3,1,2
13,16,1,0.5,0.449371399071647,-0.780192049241489,-0.112770461250294,7,10,7,1,2
13,17,1,0.5,0.0886410135390041,-0.229468249776909,-0.140047925471829,7,12,3,2,1
13,18,1,0.5,-1.7011366685268,-0.780192049241489,-0.527778470783333,3,10,3,1,0
13,19,1,0.5,-0.998174891591396,-0.229468249776909,0.0767114619897436,7,8,7,1,0
13,20,1,0.5,-0.713752856844504,1.42270314861683,-0.0425742850262308,3,12,7,1,1
13,21,1,0.5,-1.05367187398103,-0.780192049241489,0.264375147676983,3,10,7,1,2
13,22,1,0.5,-1.33809390872792,-0.229468249776909,0.227165864527284,7,12,7,2,1
13,23,1,0.5,-1.4490878735072,-0.780192049241489,0.180402493563498,7,10,7,2,0
13,24,1,0.5,-1.03054813131868,-0.229468249776909,0.0380485605937673,7,8,3,2,0
14,2,1,0.5,-0.315219554572394,-0.268182305786454,-0.45635569763017,3,8,7,1,2
14,3,1,0.5,1.56452084710522,1.50182091240414,2.37866332574757,7,12,7,2,2
14,4,1,0.5,0.895953384652873,-0.858183378516652,-0.0351785121253369,7,10,3,1,1
14,10,1,0.5,-0.765083789141779,1.50182091240414,0.0128947233486229,3,12,3,1,2
14,11,1,0.5,-0.994860598183372,-0.268182305786454,0.484388347613848,7,8,7,2,1
14,16,1,0.5,-0.456407714344939,-0.268182305786454,-0.51982716237811,7,12,7,1,1
14,17,1,0.5,-0.665421558714099,-0.858183378516652,-0.334899901312645,7,10,7,2,0
14,19,1,0.5,0.513914834680103,-0.268182305786454,-0.986549936820709,7,8,3,2,2
14,20,1,0.5,-0.986555412314399,1.50182091240414,1.3317534909425,3,12,3,1,1
14,22,1,0.5,1.71262999510191,-0.858183378516652,0.0212264641539863,7,10,3,1,0
14,24,1,0.5,-0.503470434269121,-0.858183378516652,-0.944545656732108,7,10,7,1,2
15,1,1,0.5,1.08278858340077,-0.715491385636572,-0.187597009920037,3,8,7,2,2
15,2,1,0.5,0.64626485667867,0.946295058422562,0.208555187544289,3,10,7,1,0
15,3,1,0.5,2.21932333135292,0.115401836392995,-0.305919267606181,3,12,3,2,0
15,4,1,0.5,1.31874735460191,0.115401836392995,1.31726569035717,3,12,3,1,0
15,5,1,0.5,0.249067591823422,0.115401836392995,0.915387577537958,7,12,7,1,1
15,6,1,0.5,2.44741681018068,-0.99245579297976,-0.0501146045868989,3,10,3,1,2
15,7,1,0.5,-0.671171615861012,-0.715491385636572,0.41694810292794,7,8,3,1,0
15,8,1,0.5,-0.710498077727868,2.6080815024817,-0.893821444215368,3,12,7,1,1
15,9,1,0.5,1.01593359822712,-0.715491385636572,-0.21223433380667,3,8,7,1,2
15,10,1,0.5,-0.226782596765537,0.946295058422562,1.28724407722027,7,10,3,2,0
15,11,1,0.5,0.103559682916055,-0.715491385636572,0.162609065198186,3,8,7,2,0
15,12,1,0.5,0.426036670224275,-0.715491385636572,0.186776955074548,7,8,3,1,2
15,13,1,0.5,-0.0340829336179419,-0.715491385636572,0.0846413509998364,7,8,7,1,2
15,14,1,0.5,-0.970052726049118,0.115401836392995,0.777266152898755,3,12,3,2,2
15,15,1,0.5,-1.1116279887698,0.115401836392995,-0.0864003686231569,7,12,3,2,2
15,16,1,0.5,-0.66330632348764,0.115401836392995,0.210882292377461,3,12,7,2,1
15,17,1,0.5,-0.541394291700386,2.6080815024817,0.140111109938038,3,12,3,1,1
15,18,1,0.5,-1.02117712647603,0.115401836392995,0.452388160644328,7,12,7,2,2
15,19,1,0.5,-0.266109058632393,-0.715491385636572,0.732053073645849,7,8,7,2,0
15,20,1,0.5,-0.596451338313985,-0.715491385636572,-0.554764456963951,7,8,3,2,1
15,21,1,0.5,-0.616114569247413,-0.715491385636572,0.459824547335371,3,8,3,2,1
15,22,1,0.5,-0.293637581939192,0.946295058422562,-0.130038013503652,7,10,7,2,1
15,23,1,0.5,-0.793083647648266,-0.715491385636572,0.310046464277031,7,8,3,1,1
15,24,1,0.5,-0.993648603169232,-0.715491385636572,0.671203660459305,7,8,7,1,0
16,1,1,0.5,-0.0767076766725516,-0.300796416641907,-0.20952230659844,3,12,7,2,2
16,2,1,0.5,-0.0369333258053026,-0.300796416641907,0.0798423502740005,3,8,7,1,2
16,3,1,0.5,1.44202314929934,-0.300796416641907,0.15360485249413,7,12,7,2,2
16,4,1,0.5,-0.737448933936647,1.76180758318831,1.26328204956562,7,10,3,1,1
16,5,1,0.5,-0.0734607908874701,-0.300796416641907,0.0986174313819872,3,12,3,2,1
16,6,1,0.5,0.620561045673711,-0.300796416641907,0.375304536344042,7,8,3,2,1
16,7,1,0.5,-0.0109582395246502,-0.300796416641907,0.239298145444727,7,8,3,2,0
16,8,1,0.5,-0.339705425264157,-0.644563749946943,0.313563606715133,3,10,7,2,1
16,9,1,0.5,-0.334023375140264,-0.300796416641907,0.156248087786713,3,8,3,1,0
16,10,1,0.5,-1.01181078277604,0.730505583273202,0.00173566128127752,3,12,3,1,2
16,11,1,0.5,2.18961860131437,-0.300796416641907,-0.0849641292865656,7,8,7,2,1
16,12,1,0.5,-0.677381546912638,-0.644563749946943,0.168237137662608,7,10,3,1,2
16,13,1,0.5,0.749624755630703,-0.300796416641907,0.343488548722994,3,8,7,2,0
16,14,1,0.5,-0.898981501744454,0.730505583273202,0.271596393149988,3,12,3,2,2
16,15,1,0.5,-0.22038237266241,-0.644563749946943,-0.0659387207974054,3,10,7,1,0
16,16,1,0.5,0.573481201790029,3.82441158301853,0.230896055387898,7,12,7,1,1
16,17,1,0.5,0.221194094108681,-0.644563749946943,0.495321919064966,7,10,7,2,0
16,18,1,0.5,-0.839725836166716,-0.300796416641907,0.905580989974657,7,12,7,1,0
16,19,1,0.5,-0.0702139051023885,-0.300796416641907,-0.0384282965386871,7,8,3,2,2
16,20,1,0.5,-0.574292923236299,0.730505583273202,0.772706087871808,3,12,3,1,1
16,21,1,0.5,2.82925510097544,-0.300796416641907,0.283601506285764,3,12,3,2,0
16,22,1,0.5,-0.585657023484085,-0.644563749946943,0.0863086274691945,7,10,3,1,0
16,23,1,0.5,-1.0183045543462,-0.300796416641907,0.0869773723952217,3,8,7,1,1
16,24,1,0.5,-1.11976973513,-0.644563749946943,-0.0220119611516705,7,10,7,1,2
17,1,1,0.5,1.15396500324483,-0.25993450567827,-0.0848719212912379,3,8,7,2,1
17,2,1,0.5,2.26490879391686,1.07687152352426,-0.465344151533519,7,12,7,2,1
17,3,1,0.5,0.419764882326164,-0.25993450567827,-0.77393715478473,3,8,3,2,2
17,4,1,0.5,1.66186175939697,-0.25993450567827,0.798770486885503,7,8,7,1,1
17,5,1,0.5,-0.633317252581696,-0.705536515412446,0.754322558505408,7,10,3,1,2
17,6,1,0.5,0.574062631030612,2.41367755272679,-0.542957414350446,7,10,3,1,1
17,7,1,0.5,-0.818474551027034,-0.705536515412446,1.51183402778387,3,10,3,1,2
17,8,1,0.5,-0.94705600828074,-0.705536515412446,0.291087761117299,3,10,7,2,0
17,9,1,0.5,-1.19264659163532,-0.25993450567827,0.40789507993421,7,8,3,2,0
17,10,1,0.5,1.63228802422862,-0.25993450567827,-0.0212595626049176,7,8,3,2,1
17,11,1,0.5,-0.875050392218665,-0.705536515412446,-0.506370516342794,3,10,3,2,0
17,12,1,0.5,-0.68860727920079,-0.25993450567827,-0.0602526552847328,7,8,7,1,2
17,13,1,0.5,0.620351955641947,-0.705536515412446,-0.40437328635667,3,10,7,1,1
17,14,1,0.5,-0.76318452440794,-0.705536515412446,-0.065385564597895,7,10,3,2,2
17,15,1,0.5,-0.148565158735221,-0.25993450567827,0.107138823326299,3,12,3,1,1
17,16,1,0.5,-0.692464722918401,-0.705536515412446,-0.0315538766711324,3,10,3,2,1
17,17,1,0.5,-0.00583974118360595,-0.25993450567827,0.0286926076280267,7,8,7,2,0
17,18,1,0.5,-0.299005463722058,2.41367755272679,0.620523852000496,7,10,3,1,0
17,19,1,0.5,1.0523856520144,-0.25993450567827,-0.0259881074756329,3,12,7,1,2
17,20,1,0.5,-0.439159252128598,-0.25993450567827,0.164165165453919,7,8,7,1,0
17,21,1,0.5,-0.884051094226424,2.41367755272679,0.224813086720136,3,10,3,1,0
17,22,1,0.5,0.826082287247878,-0.25993450567827,-0.825841166878392,7,8,7,2,2
17,23,1,0.5,-0.929054604265221,-0.25993450567827,0.507248517202405,3,12,7,1,0
17,24,1,0.5,-0.889194352516572,-0.25993450567827,0.159998995290696,3,12,7,2,2
18,1,1,0.5,2.06919839577808,0.295163026345123,-0.0516862928513314,7,12,3,1,1
18,2,1,0.5,0.199849867580136,-0.885489079035371,0.0977070926509419,3,10,7,1,1
18,3,1,0.5,-0.0765580771875939,-0.885489079035371,0.0804332619921975,7,10,3,2,2
18,4,1,0.5,1.84232019833867,0.295163026345123,0.0200038690308885,3,8,7,1,2
18,5,1,0.5,0.599283313776277,3.83711934248661,-0.335329531516287,3,12,3,1,1
18,6,1,0.5,0.985934889694142,0.295163026345123,-0.291403650975204,3,12,3,2,0
18,7,1,0.5,0.0256968850386183,0.295163026345123,-0.662746152635797,7,8,7,1,1
18,8,1,0.5,-0.599017024812147,0.295163026345123,0.433311948776307,7,12,3,1,2
18,9,1,0.5,-0.848263495238539,0.295163026345123,0.244853860413995,3,8,3,1,0
18,10,1,0.5,-0.490371127446796,-0.885489079035371,-0.695407207309674,7,10,3,2,1
18,11,1,0.5,-0.298643073272648,-0.885489079035371,1.95174282171498,3,10,7,2,1
18,12,1,0.5,0.695147340863351,0.295163026345123,-0.637983155593191,7,8,3,2,0
18,13,1,0.5,0.01930594989948,-0.885489079035371,0.0770345941150146,3,10,3,2,2
18,14,1,0.5,0.271747887895441,-0.885489079035371,-0.0969221518128724,7,10,7,2,1
18,15,1,0.5,-1.00004820479307,0.295163026345123,-0.183025304490741,7,12,7,2,0
18,16,1,0.5,-1.03999154941269,-0.885489079035371,-0.357967988316127,3,10,3,2,1
18,17,1,0.5,2.36477914596322,-0.885489079035371,-0.238647486092433,7,10,7,2,2
18,18,1,0.5,-0.229940520526912,0.295163026345123,-0.305232589940549,3,12,7,2,2
18,19,1,0.5,-0.522325803142488,0.295163026345123,-0.00712887246432454,7,8,7,1,0
18,20,1,0.5,-0.43924364633369,0.295163026345123,0.108280522953827,3,8,3,1,2
18,21,1,0.5,-1.18858079139765,0.295163026345123,0.058790417157046,3,8,7,1,0
18,22,1,0.5,-1.193373992752,0.295163026345123,-0.152174175045752,3,8,7,2,0
18,23,1,0.5,-0.189997175907298,0.295163026345123,0.474919392550063,7,8,3,1,0
18,24,1,0.5,-0.956909392603889,-0.885489079035371,-0.355267721560652,7,10,7,1,2
19,1,1,0.5,1.06182546496613,-0.978945010372561,-0.141220985985477,3,10,7,2,2
19,2,1,0.5,-0.215589337084942,1.6315750172876,0.151331819714898,7,12,7,2,0
19,3,1,0.5,2.63505186781269,-0.326315003457521,0.0364366073875954,7,12,7,2,1
19,4,1,0.5,2.63300472870684,-0.326315003457521,-0.230743977213937,3,12,3,2,0
19,5,1,0.5,-0.370148339576699,1.6315750172876,0.0432921563566914,3,12,7,1,1
19,6,1,0.5,0.0239259382996345,-0.326315003457521,0.847745572757668,3,12,3,1,0
19,7,1,0.5,0.334067512836073,-0.326315003457521,-0.0838596780903149,7,8,3,1,1
19,8,1,0.5,-0.673124927242658,1.6315750172876,-0.339207379396551,7,12,3,1,0
19,9,1,0.5,-0.332276266118454,-0.978945010372561,-0.117207023362741,3,10,3,2,2
19,10,1,0.5,-0.217636476190793,-0.978945010372561,-0.769262167503182,7,10,3,2,2
19,11,1,0.5,1.39755627832571,-0.326315003457521,0.0936634869770743,7,8,7,1,2
19,12,1,0.5,0.455872289634213,-0.326315003457521,0.0158027778845049,7,12,3,1,2
19,13,1,0.5,-0.0241818306878659,-0.326315003457521,-0.330787323989199,3,8,3,1,2
19,14,1,0.5,-0.201259363343984,-0.326315003457521,-0.695501444953479,3,8,3,1,1
19,15,1,0.5,-0.686431331430691,1.6315750172876,0.275189015455255,3,12,7,1,0
19,16,1,0.5,-0.707926292042127,-0.326315003457521,-0.12178952292222,7,8,3,2,1
19,17,1,0.5,-0.729421252653563,-0.978945010372561,0.098679967473109,7,10,7,1,0
19,18,1,0.5,-0.517542355197976,-0.326315003457521,0.1953646610835,3,12,7,2,1
19,19,1,0.5,-0.954606554297182,1.6315750172876,0.389590954846483,7,12,7,1,1
19,20,1,0.5,-0.0159932742644616,-0.978945010372561,0.0094682876304502,7,10,7,2,2
19,21,1,0.5,-0.869650281404362,-0.326315003457521,-0.00500908752823712,7,12,3,2,0
19,22,1,0.5,-0.54415516357404,-0.326315003457521,-0.0963923361372016,3,12,7,2,0
19,23,1,0.5,-0.575885819714732,1.6315750172876,0.462779511265479,3,12,7,1,2
19,24,1,0.5,-0.905475215756756,-0.978945010372561,-0.642165585999926,3,10,3,2,1
20,1,1,0.5,0.0920476412209141,-0.599979131523567,0.627869406558364,7,10,3,1,2
20,2,1,0.5,1.42930688743486,-0.279990261377665,-0.488091928073221,3,12,3,1,2
20,3,1,0.5,-0.670989819035713,-0.279990261377665,-0.288791704658433,3,12,3,2,0
20,4,1,0.5,0.589632477021451,-0.599979131523567,0.167709380403815,3,10,7,1,2
20,5,1,0.5,0.771784068698434,1.63994295949775,0.0619075230508964,7,10,3,1,0
20,6,1,0.5,0.582968394399123,-0.599979131523567,0.29404158048421,3,10,7,1,1
20,7,1,0.5,0.0187427323752992,1.63994295949775,-0.0545589547283044,3,10,7,1,0
20,8,1,0.5,1.27270094581013,0.679976349060042,0.444715344911157,7,12,3,1,1
20,9,1,0.5,0.30529828513543,-0.599979131523567,0.831083302020645,3,10,3,1,1
20,10,1,0.5,2.72991367922599,-0.279990261377665,0.236692948890276,3,12,3,2,2
20,11,1,0.5,-0.673211179909823,-0.279990261377665,-0.323965791532636,3,8,3,1,0
20,12,1,0.5,0.100933084717352,-0.279990261377665,0.051015319054043,3,8,3,2,1
20,13,1,0.5,0.648498540185354,-0.599979131523567,0.0481454089567499,7,10,7,1,0
20,14,1,0.5,0.485228515938303,-0.279990261377665,0.201291755500705,3,8,7,2,1
20,15,1,0.5,0.785112233943091,-0.599979131523567,-0.329801070469078,7,10,3,2,1
20,16,1,0.5,-1.04639980676023,3.55987618037316,-0.25381267463217,7,12,7,1,1
20,17,1,0.5,-1.11637267429468,0.679976349060042,-1.33778586305674,7,12,7,2,1
20,18,1,0.5,-0.887572504261393,-0.279990261377665,0.0761503476420113,7,12,3,2,2
20,19,1,0.5,-0.812046234541669,-0.279990261377665,0.143311739697269,7,12,7,1,2
20,20,1,0.5,-1.06639205462721,-0.279990261377665,0.375617310139585,7,12,3,2,0
20,21,1,0.5,-1.04862116763433,-0.599979131523567,-0.268090362437819,7,10,7,2,2
20,22,1,0.5,-1.15635717002865,-0.279990261377665,0.61255047783853,3,8,7,2,0
20,23,1,0.5,-0.492170268669895,-0.599979131523567,0.198017778600239,3,10,7,2,2
20,24,1,0.5,-0.842034606342148,-0.599979131523567,0.263084667171172,7,10,7,2,0
21,1,1,0.5,1.48226186016653,-0.435494170355693,-0.84721715269849,3,12,7,2,2
21,2,1,0.5,1.35116110599867,-0.435494170355693,1.45653195597187,3,8,7,1,2
21,3,1,0.5,0.593690081917666,-0.435494170355693,0.319692661461767,7,12,7,2,2
21,4,1,0.5,1.70367646720559,2.17747085177846,0.0929889242540898,7,10,3,1,1
21,5,1,0.5,1.64249611526059,-0.435494170355693,-0.112451140431981,3,12,3,2,1
21,6,1,0.5,1.73280996813178,-0.435494170355693,0.980867227489797,7,8,3,2,1
21,7,1,0.5,-0.830938113373136,-0.435494170355693,0.452800659885015,7,8,3,2,0
21,8,1,0.5,-0.868811664577186,2.17747085177846,-0.181335045088789,3,10,7,2,1
21,9,1,0.5,0.748097636826485,-0.435494170355693,0.214568206331457,3,8,3,1,0
21,10,1,0.5,-0.0122867373471331,-0.435494170355693,0.0648332967795305,3,12,3,1,2
21,11,1,0.5,0.0314135140421553,-0.435494170355693,-0.0949659496398841,7,8,7,2,1
21,12,1,0.5,-0.428895800591682,-0.870988340711385,-0.114607573675297,7,10,3,1,2
21,13,1,0.5,-0.297795046423817,-0.435494170355693,0.08545794164569,3,8,7,2,0
21,14,1,0.5,-0.70275070929789,-0.435494170355693,0.791234273759327,3,12,3,2,2
21,15,1,0.5,-0.679443908556936,-0.870988340711385,-1.07103718973486,3,10,7,1,0
21,16,1,0.5,-0.423069100406444,0.870988340711385,0.310332294643346,7,12,7,1,1
21,17,1,0.5,-0.676530558464317,-0.870988340711385,-1.48438028348177,7,10,7,2,0
21,18,1,0.5,0.520856329602185,-0.435494170355693,-0.146296363281983,7,12,7,1,0
21,19,1,0.5,-1.04943937031958,0.870988340711385,-2.53778888762444,7,8,3,2,2
21,21,1,0.5,-1.08148622133839,0.870988340711385,0.337754296601183,3,12,3,2,0
21,22,1,0.5,-1.11061972226458,2.17747085177846,0.508841981308442,7,10,3,1,0
21,23,1,0.5,-0.714404109668367,-0.435494170355693,-0.358015666240057,3,8,7,1,1
21,24,1,0.5,-0.929992016522189,-0.870988340711385,0.43102246980944,7,10,7,1,2
22,1,1,0.5,0.0951742196796061,-0.419322312840655,-2.09454001544606,7,8,7,1,1
22,2,1,0.5,0.408982923028798,1.0273396664596,0.0519422964532693,3,12,7,2,2
22,3,1,0.5,3.29831915508538,1.0273396664596,0.708217674436006,3,12,3,1,0
22,4,1,0.5,-0.28751932099014,-0.419322312840655,0.861359935519311,3,8,3,1,2
22,5,1,0.5,0.183193734033648,-0.419322312840655,-0.202386885573377,7,12,3,1,1
22,6,1,0.5,-0.670212861659885,-0.419322312840655,0.204376335991019,7,8,7,2,2
22,7,1,0.5,0.711310820157897,-0.901542972607407,0.0608977118196353,7,10,3,2,0
22,8,1,0.5,-0.773540117640717,-0.419322312840655,0.0707835714509597,7,12,3,2,1
22,9,1,0.5,-0.624289636779516,1.0273396664596,0.678603153628727,7,12,7,1,2
22,10,1,0.5,1.23560097087545,2.47400164575986,0.484522064517053,3,10,3,1,1
22,11,1,0.5,0.0377701885791443,-0.419322312840655,-0.205905396141895,7,8,3,1,0
22,12,1,0.5,-0.0502493257748972,-0.901542972607407,0.55124523855285,3,10,3,2,0
22,13,1,0.5,0.477867760349352,-0.419322312840655,0.318286354553606,7,8,7,1,0
22,14,1,0.5,-1.19067607697074,-0.419322312840655,0.589073906538015,3,8,3,2,2
22,15,1,0.5,1.12844677948792,-0.419322312840655,0.00967172709912018,3,12,7,2,0
22,16,1,0.5,-0.448250608071433,2.47400164575986,-0.659644350904418,7,10,7,2,1
22,17,1,0.5,-1.08734882098991,-0.419322312840655,-0.12158967312901,7,8,3,1,2
22,18,1,0.5,0.864388236425795,1.0273396664596,0.246994874369584,3,12,3,2,1
22,19,1,0.5,-0.635770442999608,-0.901542972607407,-0.0674954684456647,3,10,7,1,2
22,21,1,0.5,-0.727616892760347,-0.901542972607407,-0.24310250016323,7,10,7,2,0
22,22,1,0.5,-0.90365592146843,-0.419322312840655,-0.289264320492783,7,8,3,2,2
22,23,1,0.5,-0.597501088932634,-0.419322312840655,-0.0749361986511697,3,12,7,2,1
22,24,1,0.5,-0.444423672664735,-0.419322312840655,0.304938272348021,3,8,7,1,1
1,1,1,1,2.28434771725881,-0.255609437163093,-0.137239801285436,7,8,3,1,0
1,3,1,1,-0.171026510066587,-0.843511142638205,-0.0547711694104226,3,10,3,1,1
1,4,1,1,1.60070853734751,1.50809567926225,-1.23384341676222,3,12,3,1,2
1,5,1,1,-0.385782273389508,-0.255609437163093,1.33658774999562,7,12,3,1,2
1,6,1,1,0.0186744142019933,-0.255609437163093,0.218522330468372,7,12,3,2,0
1,7,1,1,-0.0672278911271752,-0.255609437163093,0.119022451706981,7,12,7,2,0
1,8,1,1,-0.471684578718677,-0.255609437163093,-0.168989847153329,3,12,3,2,0
1,9,1,1,-0.428733426054093,-0.255609437163093,-0.146227455838907,3,8,7,2,0
1,10,1,1,-0.740129282872328,-0.255609437163093,1.53126840125903,7,8,3,2,2
1,11,1,1,-0.840348639089692,-0.843511142638205,0.551309337137326,7,10,7,1,1
1,12,1,1,-0.718653706540036,-0.255609437163093,0.240444136227589,7,8,7,1,0
1,13,1,1,-0.16386798462249,1.50809567926225,0.409538404136995,3,12,7,1,0
1,14,1,1,-0.919092418974763,-0.255609437163093,-0.675707181084347,7,8,3,1,1
1,15,1,1,1.10677028170479,-0.843511142638205,0.421574086308947,3,10,7,1,2
1,16,1,1,0.240588702969012,-0.843511142638205,-0.236312486474597,3,10,7,2,2
1,17,1,1,2.69954219301646,1.50809567926225,-0.685932544085749,7,12,7,1,2
1,18,1,1,0.430289627237592,-0.255609437163093,0.403804753841601,7,8,7,2,1
1,19,1,1,-0.679281816597501,-0.255609437163093,1.61728373982882,7,8,3,2,1
1,20,1,1,-0.546849095881699,-0.843511142638205,0.250310093141204,7,10,7,2,2
1,21,1,1,-0.443050476942287,-0.255609437163093,0.94052240218836,3,8,3,2,2
1,22,1,1,-0.29987996806034,-0.255609437163093,2.3136736942587,3,8,3,2,1
1,23,1,1,-0.589800248546284,3.27180079568758,0.128017060094722,3,10,3,1,0
1,24,1,1,-0.915513156252714,-0.255609437163093,-0.0514855228424172,3,8,7,1,1
2,1,1,1,0.464088670255891,-0.420558293861036,-0.00365798165406031,7,12,3,1,2
2,2,1,1,1.02587331658995,1.53300281310635,0.0906442292493166,7,10,3,1,0
2,3,1,1,0.830743635510334,3.48656392007375,0.698797157333564,7,12,7,1,1
2,4,1,1,1.23673926227276,-0.420558293861036,0.255362871323744,7,8,7,2,2
2,5,1,1,-0.0221619059828328,-0.420558293861036,-0.257824771471117,7,12,7,2,1
2,6,1,1,0.674954615938704,0.556222259622659,0.209622535029199,7,12,7,1,2
2,7,1,1,1.43029531689206,-0.420558293861036,0.137595729078546,3,8,3,1,0
2,8,1,1,1.83943819657513,-0.746151811688934,-0.380760102758124,3,10,7,1,2
2,9,1,1,0.0816974403982539,-0.746151811688934,-0.0168182423161034,3,10,3,2,0
2,10,1,1,-0.402979509380151,-0.746151811688934,0.170756653326024,7,10,3,2,0
2,11,1,1,-0.0945487231575296,-0.420558293861036,-0.196694537117783,7,8,7,2,0
2,12,1,1,0.169820522176146,0.556222259622659,0.952609117154271,3,12,7,2,2
2,13,1,1,-0.989942179079322,1.53300281310635,0.0422148332096652,7,10,3,1,1
2,14,1,1,1.68050192408286,-0.420558293861036,-0.23223520477228,3,8,7,2,1
2,15,1,1,-1.0607553697937,-0.746151811688934,0.180600148295094,7,10,7,1,0
2,16,1,1,-0.612271828602644,-0.420558293861036,-0.204502346475966,3,12,3,2,2
2,17,1,1,0.475104055478128,0.556222259622659,0.97545663280457,3,8,3,2,1
2,18,1,1,-0.115005867141683,-0.420558293861036,0.0956216465038249,3,12,3,1,2
2,19,1,1,-0.706689416221813,0.556222259622659,0.0547444067474773,3,12,7,1,1
2,20,1,1,-1.42268945566718,-0.746151811688934,0.339294405631348,3,10,7,2,0
2,21,1,1,-0.635876225507436,-0.420558293861036,0.470115296441945,7,12,3,2,1
2,22,1,1,-1.38649604707984,-0.420558293861036,0.0326003292842204,3,8,7,1,0
2,23,1,1,-1.20080812476213,-0.420558293861036,0.256023084012959,3,8,3,1,1
2,24,1,1,-1.25903230379396,-0.420558293861036,0.741892177717665,7,8,3,2,2
3,1,1,1,3.2587883326523,-0.313103974450949,-0.537234552606163,7,8,3,2,0
3,2,1,1,0.338950201642425,1.29714503701107,-0.203859648846779,3,8,3,1,0
3,3,1,1,0.773530760676452,-0.313103974450949,-0.545932502051731,3,8,7,2,2
3,4,1,1,-0.231436782089736,1.29714503701107,1.33831332781404,7,8,3,1,1
3,5,1,1,-0.557372201365257,-0.313103974450949,-0.59966103484477,7,8,7,1,1
3,6,1,1,-0.163533569740669,2.90739404847309,0.0482872688476343,7,10,7,2,1
3,7,1,1,-0.38761417049259,-0.849853644938288,0.43674059073574,7,10,3,1,2
3,8,1,1,-0.28575935196899,1.29714503701107,-0.53291040527282,7,8,7,2,0
3,9,1,1,-0.143162606035949,1.29714503701107,0.589207939283115,3,12,7,1,1
3,10,1,1,-0.808614087056804,-0.849853644938288,0.461237806261554,7,10,3,2,2
3,11,1,1,-0.964791475459657,-0.849853644938288,0.252078957207945,3,10,7,1,0
3,12,1,1,-0.849356014466244,1.29714503701107,0.952739883713094,3,12,3,1,1
3,13,1,1,-0.50983995272091,-0.313103974450949,-0.48729203612631,3,12,7,2,0
3,14,1,1,0.522288874984905,-0.849853644938288,0.330592680950118,3,10,3,2,2
3,15,1,1,-0.910468905580404,-0.849853644938288,0.549653770896778,7,10,3,2,1
3,16,1,1,-0.217856139619923,-0.313103974450949,0.437280474486145,3,8,3,1,2
3,17,1,1,-0.231436782089736,-0.313103974450949,0.160001085065255,7,8,3,1,0
3,18,1,1,0.0605470310112509,-0.313103974450949,-0.15248788359672,3,8,3,2,0
3,19,1,1,0.0130147823669042,-0.313103974450949,-0.315177054271344,3,8,7,1,2
3,20,1,1,0.705627548327385,-0.313103974450949,-0.265743413688753,7,12,7,2,2
3,21,1,1,0.352530844112238,-0.313103974450949,0.442280359788517,3,12,7,2,1
3,22,1,1,2.17233693506723,-0.849853644938288,-0.0847653903760943,3,10,3,2,1
3,23,1,1,-1.10059790015779,-0.849853644938288,-0.0860656815247423,7,10,7,1,2
3,24,1,1,-0.83577537199643,-0.313103974450949,0.30707744182783,7,12,7,1,0
4,1,1,1,-0.00888346395525166,-0.0591726335413945,-0.239980243496665,3,8,7,2,1
4,2,1,1,2.30747976237662,-0.0591726335413945,-0.0859603951451943,7,12,7,2,1
4,3,1,1,1.46799241860534,-0.0591726335413945,-0.060906101184621,3,8,3,2,2
4,4,1,1,0.81505781789434,-0.0591726335413945,-0.149784390225568,7,8,7,1,1
4,5,1,1,0.370884620131757,-0.68048528572603,0.0395366916348137,7,10,3,1,2
4,6,1,1,0.0954972375189553,3.66870327956642,0.00633146358511789,7,10,3,1,1
4,7,1,1,-0.144356289272839,-0.68048528572603,0.127767438502308,3,10,3,1,2
4,9,1,1,-1.33029872729894,-0.0591726335413945,-0.174525268181427,7,8,3,2,0
4,10,1,1,-1.01271489089869,-0.0591726335413945,-0.171120379214733,7,8,3,2,1
4,11,1,1,-0.424185403863267,-0.68048528572603,0.131717031900788,3,10,3,2,0
4,12,1,1,0.21320313492604,-0.0591726335413945,-0.0710350235179504,7,8,7,1,2
4,13,1,1,-0.684026724554378,-0.68048528572603,0.123302022338842,3,10,7,1,1
4,14,1,1,-0.746210972241139,-0.68048528572603,0.0418657306939846,7,10,3,2,2
4,15,1,1,0.470823589628338,1.80476532301251,-0.340441948646796,3,12,3,1,1
4,16,1,1,0.262062186679924,-0.68048528572603,0.141821179563699,3,10,3,2,1
4,17,1,1,0.981622767055308,-0.0591726335413945,-0.132106166358139,7,8,7,2,0
4,19,1,1,-1.1348625202834,-0.0591726335413945,-0.319600584689257,3,12,7,1,2
4,21,1,1,1.17927984005966,-0.68048528572603,-0.100461015213255,3,10,3,1,0
4,22,1,1,-1.33029872729894,-0.0591726335413945,-0.00310987971368707,7,8,7,2,2
4,23,1,1,0.0444173197762583,-0.0591726335413945,0.0628825941316428,3,12,7,1,0
4,24,1,1,-1.3924829749857,-0.0591726335413945,0.743727944612632,3,12,7,2,2
5,1,1,1,2.16756348179368,-0.395008187929654,-0.0516851266408188,7,8,7,2,2
5,2,1,1,1.08347567432217,-0.395008187929654,0.0125255730323597,3,8,7,1,2
5,3,1,1,0.18792487684571,-0.395008187929654,0.119916368019399,7,12,3,2,2
5,4,1,1,-0.532555839921067,0.371772412169085,-0.258187607589348,3,12,7,2,2
5,5,1,1,1.28547961360258,-0.6506017212959,-0.340017721177746,3,10,7,2,1
5,7,1,1,0.807403623972285,-0.395008187929654,-0.151341548987628,3,8,3,2,0
5,9,1,1,0.120590230418908,-0.395008187929654,-0.80453383013197,3,8,7,1,1
5,10,1,1,-0.956764112409917,-0.6506017212959,-0.472299310519321,7,10,3,1,2
5,11,1,1,2.44363553214356,2.6721142124653,-1.8159698669281,3,12,3,1,1
5,12,1,1,0.369728422198074,2.6721142124653,0.278413961158291,7,12,3,1,1
5,13,1,1,0.107123301133548,-0.395008187929654,-0.202927547934716,7,8,3,2,1
5,14,1,1,-0.24301686028582,-0.395008187929654,0.729948943320331,3,12,7,2,0
5,15,1,1,-0.357485759211383,-0.395008187929654,0.807281630040547,7,8,7,2,0
5,16,1,1,-1.07123301133548,-0.395008187929654,2.25470560637162,3,12,3,2,2
5,17,1,1,-1.165501516333,-0.6506017212959,-1.07113062592297,3,10,3,1,2
5,18,1,1,-0.559489698491788,1.13855301226782,0.114123480897527,3,10,3,1,0
5,19,1,1,-0.344018829926022,-0.6506017212959,-0.0758039672841554,7,10,7,2,1
5,20,1,1,-0.707625920630751,-0.6506017212959,0.511619939551927,3,10,7,1,0
5,21,1,1,-0.552756233849107,1.13855301226782,0.166459412476428,7,10,7,1,1
5,22,1,1,-0.822094819556314,-0.395008187929654,-0.235246246798894,7,8,7,1,2
5,23,1,1,-0.465221193494265,-0.395008187929654,1.04633552356877,7,12,7,1,0
5,24,1,1,-0.795160960985593,-0.395008187929654,-0.739846631958035,7,8,3,2,0
6,1,1,1,0.233148016104067,-0.401593372583645,-0.241747906163614,3,8,7,2,1
6,2,1,1,2.25361710552058,0.912712210417374,0.0193266459017423,7,12,3,2,1
6,3,1,1,0.111390490191631,0.912712210417374,0.0494505396444789,3,8,7,1,0
6,4,1,1,0.813702016469159,-0.401593372583645,-0.210839582985881,3,8,7,2,0
6,5,1,1,-0.336818373312119,-0.839695233583985,0.111568021375461,7,10,7,2,2
6,6,1,1,2.91004898435284,2.22701779341839,-0.00556985613554192,7,10,3,1,1
6,7,1,1,-0.0915387196624291,-0.401593372583645,0.000518958559050386,3,8,3,1,2
6,8,1,1,0.0690400463960008,-0.401593372583645,0.110277034118667,3,8,7,1,2
6,9,1,1,0.40784359676104,-0.401593372583645,0.186746941057321,7,12,7,1,0
6,10,1,1,-0.66503431272825,-0.839695233583985,0.298968089201166,7,10,7,1,2
6,11,1,1,-0.430342270027468,-0.401593372583645,-0.203605601343571,7,12,7,2,0
6,12,1,1,-0.864434318932674,-0.839695233583985,0.186715588511752,3,10,7,2,2
6,13,1,1,-0.118007747034698,-0.401593372583645,0.191672069831984,3,8,3,1,0
6,14,1,1,1.42954805333061,-0.839695233583985,-0.130896934835183,3,10,3,2,0
6,15,1,1,-0.779733431341415,-0.401593372583645,0.0702817142174313,3,12,3,2,1
6,16,1,1,0.317848903695326,-0.401593372583645,-0.0923937682742221,7,8,3,2,2
6,17,1,1,-1.05677591783783,0.912712210417374,0.460641319443514,3,12,7,1,1
6,18,1,1,-0.250352883896041,-0.401593372583645,-0.227555089644117,3,12,3,2,2
6,19,1,1,-0.966781224772113,2.22701779341839,-0.189581712036425,3,10,3,1,1
6,20,1,1,-0.91031396637794,2.22701779341839,-0.133485178285547,7,10,7,1,1
6,21,1,1,-0.403873242655199,-0.839695233583985,-0.00775688495920058,7,10,3,1,0
6,22,1,1,-0.959722817472841,-0.401593372583645,0.640402085493009,7,12,3,1,2
6,23,1,1,-0.423283862728196,-0.401593372583645,0.225450430320924,7,8,7,2,1
6,24,1,1,-0.289174124042035,-0.401593372583645,0.38041663299526,7,12,3,2,0
7,1,1,1,1.46706724705617,-0.290957186981324,-0.762223188982404,7,8,7,2,2
7,2,1,1,3.76560498367291,-0.290957186981324,0.423342940114161,3,8,7,1,2
7,3,1,1,0.939971510647681,-0.290957186981324,0.605935789018993,7,12,3,2,2
7,4,1,1,0.085942975707351,-0.290957186981324,0.264022652578805,3,12,7,2,2
7,6,1,1,-0.254334018682937,-0.290957186981324,1.44683446641909,7,8,3,1,0
7,7,1,1,-0.457833005524187,-0.290957186981324,0.165416349454745,3,8,3,2,0
7,8,1,1,-0.368871699801236,-0.290957186981324,0.486222266208368,3,8,3,2,1
7,9,1,1,0.065926681919687,-0.290957186981324,0.561145841953366,3,8,7,1,1
7,10,1,1,-0.331063144868982,2.76409327632257,0.208011951027184,7,10,3,1,2
7,12,1,1,-0.00524236265867385,1.23656804467062,1.25606262612824,7,12,3,1,1
7,13,1,1,-0.510097772636421,-0.290957186981324,0.679956629449991,7,8,3,2,1
7,14,1,1,-0.472289217704167,-0.290957186981324,0.492501266071197,3,12,7,2,0
7,15,1,1,-0.541234229639454,-0.290957186981324,0.195122359542388,7,8,7,2,0
7,16,1,1,-0.531226082745622,-0.290957186981324,0.46787920611019,3,12,3,2,2
7,17,1,1,-0.294366606258265,-0.800132264198639,0.484911062802939,3,10,3,1,2
7,19,1,1,-0.425584532199618,-0.800132264198639,0.669213394365388,7,10,7,2,1
7,20,1,1,-0.446712842308818,-0.800132264198639,0.587241127641425,3,10,7,1,0
7,21,1,1,-0.430032597485765,2.76409327632257,1.68583564020484,7,10,7,1,1
7,22,1,1,-0.401120173125806,-0.290957186981324,1.10939203520339,7,8,7,1,2
7,23,1,1,-0.516769870565642,-0.290957186981324,-0.16919563229957,7,12,7,1,0
7,24,1,1,-0.337735242798203,-0.290957186981324,1.7634912275214,7,8,3,2,0
8,1,1,1,1.74430280251217,-0.81401415689105,0.163731332023304,3,10,7,1,1
8,2,1,1,1.95922110775353,-0.222003860970287,-0.00289215932801402,3,8,3,2,0
8,3,1,1,1.11011763950489,-0.81401415689105,-4.70995162798207,7,10,3,2,2
8,4,1,1,1.51881474455403,-0.81401415689105,0.192505179965473,7,10,3,2,0
8,5,1,1,0.070758622354054,-0.222003860970287,-0.298893513889411,3,8,3,1,1
8,6,1,1,-0.0490319084362115,1.554027026792,0.136897601539851,7,12,7,2,0
8,7,1,1,1.08193163226012,-0.222003860970287,-0.00132758250997619,7,8,7,1,1
8,8,1,1,1.17353615580562,-0.222003860970287,0.0864149441177036,3,8,3,2,2
8,9,1,1,-1.06020491834228,-0.222003860970287,-1.00042148608899,3,8,7,1,2
8,10,1,1,-0.817100605856149,-0.222003860970287,-0.0548508581129216,7,8,3,1,0
8,11,1,1,-0.891088874873666,-0.222003860970287,0.0911238062572759,3,8,7,1,0
8,12,1,1,0.204642156766704,-0.222003860970287,0.460370921921967,7,8,7,1,0
8,13,1,1,-0.426019755334988,-0.222003860970287,0.490106043831714,7,8,3,1,1
8,14,1,1,-0.820623856761745,-0.222003860970287,0.0732747924589313,3,12,7,2,2
8,15,1,1,-0.915751631212838,-0.81401415689105,-0.272866654363893,3,10,7,2,1
8,16,1,1,0.704943785361342,-0.222003860970287,-0.135720954095688,7,12,7,2,2
8,17,1,1,0.641525269060613,3.3300579145543,1.32783139914233,7,10,7,2,1
8,18,1,1,-0.993263151135951,1.554027026792,-0.414454961647752,3,12,3,1,2
8,19,1,1,-0.140636431981709,-0.222003860970287,-0.00183700504044567,7,12,3,2,1
8,20,1,1,-1.05315841653108,-0.222003860970287,0.00466446395101638,3,12,3,1,0
8,21,1,1,-0.898135376684858,1.554027026792,-0.375324060345899,7,8,7,1,2
8,22,1,1,-0.947460889363202,-0.81401415689105,-0.397539775560482,3,10,3,2,1
8,23,1,1,-0.95803064207999,-0.81401415689105,0.52982672179324,7,10,3,1,2
8,24,1,1,-0.239287457338398,-0.222003860970287,-0.529227163190435,3,12,7,2,0
9,1,1,1,0.260359713264582,-0.375540841706121,0.0126240652676665,7,8,7,1,0
9,2,1,1,0.872162075787297,0.706016782407506,0.0897680290480306,3,8,7,1,2
9,3,1,1,0.0506971058832025,0.706016782407506,0.221427686232953,3,12,3,2,2
9,4,1,1,0.229425885946018,-0.375540841706121,-0.029457515355186,7,12,3,2,2
9,5,1,1,0.555949618753085,-0.375540841706121,0.208864849123822,7,8,3,1,1
9,6,1,1,-0.45455540698668,-0.375540841706121,0.913674429586605,7,8,7,1,2
9,7,1,1,0.188180782854599,-0.736060049743996,0.296115024278385,7,10,7,2,1
9,8,1,1,3.27468933086245,-0.375540841706121,0.342758419287629,3,8,7,2,2
9,9,1,1,0.0575712897317723,3.95068965474839,0.380879713301531,3,12,7,1,1
9,10,1,1,-0.433932855440971,0.706016782407506,0.501554254727396,7,12,3,1,0
9,11,1,1,1.06463922354725,-0.736060049743996,-0.0746056493522603,3,10,3,2,0
9,12,1,1,-0.884191897522294,-0.375540841706121,-0.249477320536412,7,8,7,1,1
9,13,1,1,-0.976993379477987,0.706016782407506,-0.306439009671498,3,12,3,1,1
9,14,1,1,0.896221719257292,-0.375540841706121,0.609440514497913,3,8,3,1,0
9,15,1,1,-0.578290716260937,0.706016782407506,-0.0350534389725786,7,8,3,2,1
9,16,1,1,-0.949496644083708,-0.375540841706121,-0.128507783026935,3,12,3,2,1
9,17,1,1,-0.743271128626613,-0.736060049743996,-0.205751057111892,7,10,3,2,0
9,18,1,1,-0.935748276386568,0.706016782407506,-0.0895122068332822,3,12,7,1,0
9,19,1,1,0.384095022538839,-0.736060049743996,0.0771823240206208,3,10,7,2,0
9,20,1,1,1.22618254398864,-0.375540841706121,0.199331747065928,3,12,3,1,2
9,21,1,1,-0.616098727428071,-0.375540841706121,0.454845642906329,3,8,7,2,1
9,22,1,1,-0.66421801436806,-0.375540841706121,-0.287665791000295,7,8,7,2,2
9,23,1,1,-1.21071563032936,-0.375540841706121,0.310858316497075,7,8,3,1,2
9,24,1,1,-0.612661635503786,-0.736060049743996,2.70917919194705,7,10,7,2,0
10,1,1,1,0.296138490004323,-0.435642635968827,0.257397820091772,7,12,3,1,2
10,2,1,1,-0.863279046458227,-0.91088914793482,0.278633032462506,7,10,3,1,0
10,3,1,1,-0.850710834680855,0.990096899929152,-0.213573229719532,7,12,7,1,1
10,4,1,1,0.726599743379308,-0.435642635968827,0.0182632253340451,7,8,7,2,2
10,5,1,1,-0.0212088573743149,-0.435642635968827,0.119829378039327,7,12,7,2,1
10,6,1,1,1.78232953267854,0.990096899929152,0.219307271067986,7,12,7,1,2
10,7,1,1,0.113899419232432,0.990096899929152,0.0306884686623316,3,8,3,1,0
10,8,1,1,0.393542131278955,-0.91088914793482,0.0417937156356893,3,10,7,1,2
10,9,1,1,-0.341698257697296,2.41583643582713,-0.14241797132179,3,10,3,2,0
10,10,1,1,-0.401397263639812,-0.91088914793482,0.368851808146325,7,10,3,2,0
10,11,1,1,-0.0777658103724881,0.990096899929152,0.0397164316780223,7,8,7,2,0
10,12,1,1,0.73916795515668,-0.435642635968827,0.85715105810502,3,12,7,2,2
10,13,1,1,-0.674755869797649,-0.91088914793482,-0.092729040365408,7,10,3,1,1
10,14,1,1,-0.995245270120631,-0.435642635968827,0.242124520046181,3,8,7,2,1
10,15,1,1,2.75008183953617,-0.91088914793482,0.54841386383224,7,10,7,1,0
10,16,1,1,0.54750272555176,-0.435642635968827,0.138509206407833,3,12,3,2,2
10,17,1,1,0.849139808208683,-0.435642635968827,0.499989387048435,3,8,3,2,1
10,18,1,1,-0.847568781736512,-0.435642635968827,0.86670079054824,3,12,3,1,2
10,19,1,1,-1.33772904105401,0.990096899929152,-0.357648405202482,3,12,7,1,1
10,20,1,1,0.054200413289916,2.41583643582713,0.25942150142667,3,10,7,2,0
10,21,1,1,-1.3440131469427,-0.435642635968827,-0.151918700562917,7,12,3,2,1
10,22,1,1,1.07536762020138,-0.435642635968827,0.088322055471875,3,8,7,1,0
10,23,1,1,-0.800437987571368,-0.435642635968827,0.605202084009609,3,8,3,1,1
10,24,1,1,-0.772159511072281,-0.435642635968827,0.0505190788754701,7,8,3,2,2
12,1,1,1,1.63379658227562,-0.0687084700658151,-0.691023926193545,7,8,7,2,2
12,2,1,1,1.03887795843342,-0.0687084700658151,0.586426126624717,3,8,7,1,2
12,3,1,1,0.997957629809359,-0.0687084700658151,0.617396201361867,7,12,3,2,2
12,4,1,1,1.58343310089215,-0.0687084700658151,0.688597591759653,3,12,7,2,2
12,5,1,1,-0.558588716698391,-0.893210110855586,0.548144216816109,3,10,7,2,1
12,6,1,1,0.946020289632659,-0.0687084700658151,0.119204531439305,7,8,3,1,0
12,7,1,1,1.61018870037712,-0.0687084700658151,0.98161145979003,3,8,3,2,0
12,8,1,1,0.340084654237832,-0.0687084700658151,1.10265486799732,3,8,3,2,1
12,9,1,1,0.333789219064899,-0.0687084700658151,-0.7108870414817,3,8,7,1,1
12,10,1,1,0.920838548940926,-0.893210110855586,-0.0427954324954318,7,10,3,1,2
12,11,1,1,0.90352610221536,2.4047964523035,0.171552118328614,3,12,3,1,1
12,12,1,1,-0.234373805292328,2.4047964523035,0.0871210768081391,7,12,3,1,1
12,13,1,1,-1.11416087070975,-0.0687084700658151,0.716496186112453,7,8,3,2,1
12,14,1,1,-0.324083756506627,-0.0687084700658151,0.330155840411311,3,12,7,2,0
12,15,1,1,-0.621543068427724,-0.0687084700658151,-1.94505021109045,7,8,7,2,0
12,16,1,1,0.417203735106265,-0.0687084700658151,0.146221340618945,3,12,3,2,2
12,17,1,1,-0.659315679465324,-0.893210110855586,-0.198868655826277,3,10,3,1,2
12,18,1,1,-0.846604875860088,-0.893210110855586,-0.129853903899945,3,10,3,1,0
12,19,1,1,-1.26997289123985,-0.893210110855586,-0.296091973707979,7,10,7,2,1
12,20,1,1,-1.03074635466839,-0.893210110855586,-0.163524004519468,3,10,7,1,0
12,21,1,1,-0.819849276375122,-0.893210110855586,-0.242676585593313,7,10,7,1,1
12,22,1,1,-0.936314827074387,-0.0687084700658151,0.514521919064429,7,8,7,1,2
12,23,1,1,-0.99454760242402,2.4047964523035,0.212598297374011,7,12,7,1,0
12,24,1,1,-1.31561479624362,-0.0687084700658151,0.21221312075254,7,8,3,2,0
13,1,1,1,0.786978041941942,3.07487454701057,0.0996389934164776,7,10,7,1,1
13,2,1,1,0.495618884396345,-0.229468249776909,0.267145984046075,3,8,3,1,1
13,3,1,1,-0.376146213974209,1.42270314861683,-0.168423994026916,3,12,7,1,0
13,4,1,1,0.958093737643324,-0.229468249776909,-0.144444798115092,3,8,7,2,1
13,5,1,1,1.40669434529289,-0.229468249776909,-0.193842790657438,7,12,3,1,2
13,6,1,1,0.810101784604291,-0.780192049241489,0.308423716714577,7,10,3,2,2
13,7,1,1,1.27951376064997,-0.780192049241489,0.0468440290705678,3,10,3,2,2
13,8,1,1,1.39744484822795,1.42270314861683,0.179061968844686,7,12,3,1,1
13,9,1,1,0.49793125866258,1.42270314861683,-0.446837779554668,3,12,7,2,2
13,10,1,1,0.523367375591164,-0.780192049241489,-5.90974784912003,3,10,7,2,0
13,11,1,1,0.375375422552131,-0.229468249776909,-0.000472224199363692,7,12,3,1,0
13,12,1,1,1.19164353853305,-0.229468249776909,-0.362946825612283,7,12,7,2,2
13,13,1,1,0.363813551220956,-0.229468249776909,-0.0119183755922354,3,8,3,2,0
13,14,1,1,-0.850182938552362,-0.780192049241489,0.517405172150427,3,10,3,2,1
13,15,1,1,-1.11379360490314,-0.229468249776909,0.325035492862042,3,8,3,1,2
13,16,1,1,0.449371399071647,-0.780192049241489,-0.125905131090282,7,10,7,1,2
13,17,1,1,0.0886410135390041,-0.229468249776909,-0.13912248206054,7,12,3,2,1
13,18,1,1,-1.7011366685268,-0.780192049241489,-0.517870101097054,3,10,3,1,0
13,19,1,1,-0.998174891591396,-0.229468249776909,0.0812084170747507,7,8,7,1,0
13,20,1,1,-0.713752856844504,1.42270314861683,-0.0373170375149828,3,12,7,1,1
13,21,1,1,-1.05367187398103,-0.780192049241489,0.289490898318666,3,10,7,1,2
13,22,1,1,-1.33809390872792,-0.229468249776909,0.219525445260915,7,12,7,2,1
13,23,1,1,-1.4490878735072,-0.780192049241489,0.185896360191162,7,10,7,2,0
13,24,1,1,-1.03054813131868,-0.229468249776909,0.0477753350344045,7,8,3,2,0
14,2,1,1,-0.315219554572394,-0.268182305786454,-0.476620618027552,3,8,7,1,2
14,3,1,1,1.56452084710522,1.50182091240414,2.64089925990636,7,12,7,2,2
14,4,1,1,0.895953384652873,-0.858183378516652,-0.0320108417298998,7,10,3,1,1
14,10,1,1,-0.765083789141779,1.50182091240414,-0.00644191352308594,3,12,3,1,2
14,11,1,1,-0.994860598183372,-0.268182305786454,0.412368786461811,7,8,7,2,1
14,16,1,1,-0.456407714344939,-0.268182305786454,-0.50721927708899,7,12,7,1,1
14,17,1,1,-0.665421558714099,-0.858183378516652,-0.366578605413333,7,10,7,2,0
14,19,1,1,0.513914834680103,-0.268182305786454,-0.988919539754465,7,8,3,2,2
14,20,1,1,-0.986555412314399,1.50182091240414,1.35976800882943,3,12,3,1,1
14,22,1,1,1.71262999510191,-0.858183378516652,0.0817105150908746,7,10,3,1,0
14,24,1,1,-0.503470434269121,-0.858183378516652,-0.958749496269781,7,10,7,1,2
15,1,1,1,1.08278858340077,-0.715491385636572,-0.153863730345847,3,8,7,2,2
15,2,1,1,0.64626485667867,0.946295058422562,0.196424265310648,3,10,7,1,0
15,3,1,1,2.21932333135292,0.115401836392995,-0.311892081563933,3,12,3,2,0
15,4,1,1,1.31874735460191,0.115401836392995,1.25081213250104,3,12,3,1,0
15,5,1,1,0.249067591823422,0.115401836392995,0.808547776830632,7,12,7,1,1
15,6,1,1,2.44741681018068,-0.99245579297976,-0.0304553067983693,3,10,3,1,2
15,7,1,1,-0.671171615861012,-0.715491385636572,0.44571772594915,7,8,3,1,0
15,8,1,1,-0.710498077727868,2.6080815024817,-0.817445131956608,3,12,7,1,1
15,9,1,1,1.01593359822712,-0.715491385636572,-0.20458472243674,3,8,7,1,2
15,10,1,1,-0.226782596765537,0.946295058422562,1.32071015545112,7,10,3,2,0
15,11,1,1,0.103559682916055,-0.715491385636572,0.172713110690907,3,8,7,2,0
15,12,1,1,0.426036670224275,-0.715491385636572,0.171476458238451,7,8,3,1,2
15,13,1,1,-0.0340829336179419,-0.715491385636572,0.0946461520898133,7,8,7,1,2
15,14,1,1,-0.970052726049118,0.115401836392995,0.74204962222456,3,12,3,2,2
15,15,1,1,-1.1116279887698,0.115401836392995,-0.0774066721455506,7,12,3,2,2
15,16,1,1,-0.66330632348764,0.115401836392995,0.234001553272521,3,12,7,2,1
15,17,1,1,-0.541394291700386,2.6080815024817,0.150463615097127,3,12,3,1,1
15,18,1,1,-1.02117712647603,0.115401836392995,0.458525506694094,7,12,7,2,2
15,19,1,1,-0.266109058632393,-0.715491385636572,0.817544771994345,7,8,7,2,0
15,20,1,1,-0.596451338313985,-0.715491385636572,-0.458633733113296,7,8,3,2,1
15,21,1,1,-0.616114569247413,-0.715491385636572,0.453625314991711,3,8,3,2,1
15,22,1,1,-0.293637581939192,0.946295058422562,-0.111595315459406,7,10,7,2,1
15,23,1,1,-0.793083647648266,-0.715491385636572,0.300086275986862,7,8,3,1,1
15,24,1,1,-0.993648603169232,-0.715491385636572,0.738288112578649,7,8,7,1,0
16,1,1,1,-0.0767076766725516,-0.300796416641907,-0.212651248812457,3,12,7,2,2
16,2,1,1,-0.0369333258053026,-0.300796416641907,0.0870680298697102,3,8,7,1,2
16,3,1,1,1.44202314929934,-0.300796416641907,0.158792831186211,7,12,7,2,2
16,4,1,1,-0.737448933936647,1.76180758318831,1.1355446316805,7,10,3,1,1
16,5,1,1,-0.0734607908874701,-0.300796416641907,0.0969358400650024,3,12,3,2,1
16,6,1,1,0.620561045673711,-0.300796416641907,0.355512480058251,7,8,3,2,1
16,7,1,1,-0.0109582395246502,-0.300796416641907,0.24444755247481,7,8,3,2,0
16,8,1,1,-0.339705425264157,-0.644563749946943,0.348408627807276,3,10,7,2,1
16,9,1,1,-0.334023375140264,-0.300796416641907,0.148404319349473,3,8,3,1,0
16,10,1,1,-1.01181078277604,0.730505583273202,0.0132267564232797,3,12,3,1,2
16,11,1,1,2.18961860131437,-0.300796416641907,-0.0765876846680326,7,8,7,2,1
16,12,1,1,-0.677381546912638,-0.644563749946943,0.201252186548655,7,10,3,1,2
16,13,1,1,0.749624755630703,-0.300796416641907,0.354304176052413,3,8,7,2,0
16,14,1,1,-0.898981501744454,0.730505583273202,0.267208490232603,3,12,3,2,2
16,15,1,1,-0.22038237266241,-0.644563749946943,-0.0519106609080415,3,10,7,1,0
16,16,1,1,0.573481201790029,3.82441158301853,0.219300222544755,7,12,7,1,1
16,17,1,1,0.221194094108681,-0.644563749946943,0.464731698390361,7,10,7,2,0
16,18,1,1,-0.839725836166716,-0.300796416641907,1.00722712534177,7,12,7,1,0
16,19,1,1,-0.0702139051023885,-0.300796416641907,-0.0468205115291048,7,8,3,2,2
16,20,1,1,-0.574292923236299,0.730505583273202,0.731506644090358,3,12,3,1,1
16,21,1,1,2.82925510097544,-0.300796416641907,0.274808329616201,3,12,3,2,0
16,22,1,1,-0.585657023484085,-0.644563749946943,0.0998960707200073,7,10,3,1,0
16,23,1,1,-1.0183045543462,-0.300796416641907,0.0793875058542044,3,8,7,1,1
16,24,1,1,-1.11976973513,-0.644563749946943,-0.0191092581767336,7,10,7,1,2
17,1,1,1,1.15396500324483,-0.25993450567827,-0.0681768631132644,3,8,7,2,1
17,2,1,1,2.26490879391686,1.07687152352426,-0.458706829803627,7,12,7,2,1
17,3,1,1,0.419764882326164,-0.25993450567827,-0.788921181059015,3,8,3,2,2
17,4,1,1,1.66186175939697,-0.25993450567827,0.858191804072324,7,8,7,1,1
17,5,1,1,-0.633317252581696,-0.705536515412446,0.722366422203668,7,10,3,1,2
17,6,1,1,0.574062631030612,2.41367755272679,-0.507160771528751,7,10,3,1,1
