Subject,Trial,Gaussian_Centroid,Standard_Deviation,Reaction_Time,Secondary_Task_Acc,Net_Cognitive_Load,Speed,Number_of_Fish,Turbidity,CameraDistance,Fish_Type
1,1,1,0.1,2.28434771725881,-0.255609437163093,0.932542822033771,7,8,3,1,0
1,3,1,0.1,-0.171026510066587,-0.843511142638205,0.0439368227767345,3,10,3,1,1
1,4,1,0.1,1.60070853734751,1.50809567926225,7.51272356480378,3,12,3,1,2
1,5,1,0.1,-0.385782273389508,-0.255609437163093,4.15238394942466,7,12,3,1,2
1,6,1,0.1,0.0186744142019933,-0.255609437163093,4.3791828461194,7,12,3,2,0
1,7,1,0.1,-0.0672278911271752,-0.255609437163093,1.63808060461006,7,12,7,2,0
1,8,1,0.1,-0.471684578718677,-0.255609437163093,-1.69472549882099,3,12,3,2,0
1,9,1,0.1,-0.428733426054093,-0.255609437163093,-1.06876206128073,3,8,7,2,0
1,10,1,0.1,-0.740129282872328,-0.255609437163093,-1.12994002714441,7,8,3,2,2
1,11,1,0.1,-0.840348639089692,-0.843511142638205,-0.311953270081969,7,10,7,1,1
1,12,1,0.1,-0.718653706540036,-0.255609437163093,-1.40173400685242,7,8,7,1,0
1,13,1,0.1,-0.16386798462249,1.50809567926225,1.50723345063408,3,12,7,1,0
1,14,1,0.1,-0.919092418974763,-0.255609437163093,1.03880174854104,7,8,3,1,1
1,15,1,0.1,1.10677028170479,-0.843511142638205,0.313850475318267,3,10,7,1,2
1,16,1,0.1,0.240588702969012,-0.843511142638205,1.28889509361025,3,10,7,2,2
1,17,1,0.1,2.69954219301646,1.50809567926225,8.6095832763078,7,12,7,1,2
1,18,1,0.1,0.430289627237592,-0.255609437163093,0.423521605184995,7,8,7,2,1
1,19,1,0.1,-0.679281816597501,-0.255609437163093,3.05990622973829,7,8,3,2,1
1,20,1,0.1,-0.546849095881699,-0.843511142638205,-3.76202607914285,7,10,7,2,2
1,21,1,0.1,-0.443050476942287,-0.255609437163093,1.7962316999625,3,8,3,2,2
1,22,1,0.1,-0.29987996806034,-0.255609437163093,0.92306470785077,3,8,3,2,1
1,23,1,0.1,-0.589800248546284,3.27180079568758,1.45049682246176,3,10,3,1,0
1,24,1,0.1,-0.915513156252714,-0.255609437163093,-0.833744037317215,3,8,7,1,1
2,1,1,0.1,0.464088670255891,-0.420558293861036,1.93738067222501,7,12,3,1,2
2,2,1,0.1,1.02587331658995,1.53300281310635,1.37021611609357,7,10,3,1,0
2,3,1,0.1,0.830743635510334,3.48656392007375,1.76399338687401,7,12,7,1,1
2,4,1,0.1,1.23673926227276,-0.420558293861036,0.926647039160743,7,8,7,2,2
2,5,1,0.1,-0.0221619059828328,-0.420558293861036,1.64092234843166,7,12,7,2,1
2,6,1,0.1,0.674954615938704,0.556222259622659,0.734990875314716,7,12,7,1,2
2,7,1,0.1,1.43029531689206,-0.420558293861036,0.589395377642233,3,8,3,1,0
2,8,1,0.1,1.83943819657513,-0.746151811688934,2.55868477564947,3,10,7,1,2
2,9,1,0.1,0.0816974403982539,-0.746151811688934,-0.0220598644309531,3,10,3,2,0
2,10,1,0.1,-0.402979509380151,-0.746151811688934,0.258422518817975,7,10,3,2,0
2,11,1,0.1,-0.0945487231575296,-0.420558293861036,1.17205972305004,7,8,7,2,0
2,12,1,0.1,0.169820522176146,0.556222259622659,2.21179638940027,3,12,7,2,2
2,13,1,0.1,-0.989942179079322,1.53300281310635,0.141631041712795,7,10,3,1,1
2,14,1,0.1,1.68050192408286,-0.420558293861036,0.451382564598701,3,8,7,2,1
2,15,1,0.1,-1.0607553697937,-0.746151811688934,3.63064194579594,7,10,7,1,0
2,16,1,0.1,-0.612271828602644,-0.420558293861036,3.29694141801234,3,12,3,2,2
2,17,1,0.1,0.475104055478128,0.556222259622659,0.728089461924855,3,8,3,2,1
2,18,1,0.1,-0.115005867141683,-0.420558293861036,1.03277170113533,3,12,3,1,2
2,19,1,0.1,-0.706689416221813,0.556222259622659,0.351596222420164,3,12,7,1,1
2,20,1,0.1,-1.42268945566718,-0.746151811688934,0.96238673543795,3,10,7,2,0
2,21,1,0.1,-0.635876225507436,-0.420558293861036,0.125655629736162,7,12,3,2,1
2,22,1,0.1,-1.38649604707984,-0.420558293861036,0.0424446100985566,3,8,7,1,0
2,23,1,0.1,-1.20080812476213,-0.420558293861036,-1.40872656596741,3,8,3,1,1
2,24,1,0.1,-1.25903230379396,-0.420558293861036,-1.67266687584148,7,8,3,2,2
3,1,1,0.1,3.2587883326523,-0.313103974450949,-0.0923025172769439,7,8,3,2,0
3,2,1,0.1,0.338950201642425,1.29714503701107,2.17914470321049,3,8,3,1,0
3,3,1,0.1,0.773530760676452,-0.313103974450949,1.40851384141165,3,8,7,2,2
3,4,1,0.1,-0.231436782089736,1.29714503701107,0.204608622096168,7,8,3,1,1
3,5,1,0.1,-0.557372201365257,-0.313103974450949,2.99705541548406,7,8,7,1,1
3,6,1,0.1,-0.163533569740669,2.90739404847309,-0.716413936822008,7,10,7,2,1
3,7,1,0.1,-0.38761417049259,-0.849853644938288,0.856148475643775,7,10,3,1,2
3,8,1,0.1,-0.28575935196899,1.29714503701107,3.90552181491687,7,8,7,2,0
3,9,1,0.1,-0.143162606035949,1.29714503701107,0.125642435553201,3,12,7,1,1
3,10,1,0.1,-0.808614087056804,-0.849853644938288,-2.15504917666443,7,10,3,2,2
3,11,1,0.1,-0.964791475459657,-0.849853644938288,-1.53781415263487,3,10,7,1,0
3,12,1,0.1,-0.849356014466244,1.29714503701107,-0.74186536557442,3,12,3,1,1
3,13,1,0.1,-0.50983995272091,-0.313103974450949,2.47809735430628,3,12,7,2,0
3,14,1,0.1,0.522288874984905,-0.849853644938288,1.1582150809132,3,10,3,2,2
3,15,1,0.1,-0.910468905580404,-0.849853644938288,-0.908159411352595,7,10,3,2,1
3,16,1,0.1,-0.217856139619923,-0.313103974450949,0.0378997100858567,3,8,3,1,2
3,17,1,0.1,-0.231436782089736,-0.313103974450949,1.85999400856577,7,8,3,1,0
3,18,1,0.1,0.0605470310112509,-0.313103974450949,0.67707475230028,3,8,3,2,0
3,19,1,0.1,0.0130147823669042,-0.313103974450949,0.158238641404322,3,8,7,1,2
3,20,1,0.1,0.705627548327385,-0.313103974450949,-0.766072972723486,7,12,7,2,2
3,21,1,0.1,0.352530844112238,-0.313103974450949,0.866120922324872,3,12,7,2,1
3,22,1,0.1,2.17233693506723,-0.849853644938288,0.477787351648981,3,10,3,2,1
3,23,1,0.1,-1.10059790015779,-0.849853644938288,-0.798561304208976,7,10,7,1,2
3,24,1,0.1,-0.83577537199643,-0.313103974450949,-0.0338750050638725,7,12,7,1,0
4,1,1,0.1,-0.00888346395525166,-0.0591726335413945,1.25968120034029,3,8,7,2,1
4,2,1,0.1,2.30747976237662,-0.0591726335413945,1.24940982630933,7,12,7,2,1
4,3,1,0.1,1.46799241860534,-0.0591726335413945,0.976459223209396,3,8,3,2,2
4,4,1,0.1,0.81505781789434,-0.0591726335413945,0.240724799323274,7,8,7,1,1
4,5,1,0.1,0.370884620131757,-0.68048528572603,0.936316655444156,7,10,3,1,2
4,6,1,0.1,0.0954972375189553,3.66870327956642,1.15936408891704,7,10,3,1,1
4,7,1,0.1,-0.144356289272839,-0.68048528572603,0.149976265766714,3,10,3,1,2
4,9,1,0.1,-1.33029872729894,-0.0591726335413945,-1.31375290785515,7,8,3,2,0
4,10,1,0.1,-1.01271489089869,-0.0591726335413945,1.51681991380579,7,8,3,2,1
4,11,1,0.1,-0.424185403863267,-0.68048528572603,-0.257192136916064,3,10,3,2,0
4,12,1,0.1,0.21320313492604,-0.0591726335413945,-0.299128656857119,7,8,7,1,2
4,13,1,0.1,-0.684026724554378,-0.68048528572603,1.80665292910279,3,10,7,1,1
4,14,1,0.1,-0.746210972241139,-0.68048528572603,-0.81458279019642,7,10,3,2,2
4,15,1,0.1,0.470823589628338,1.80476532301251,0.721286924704113,3,12,3,1,1
4,16,1,0.1,0.262062186679924,-0.68048528572603,2.08974060446017,3,10,3,2,1
4,17,1,0.1,0.981622767055308,-0.0591726335413945,0.993314940755821,7,8,7,2,0
4,19,1,0.1,-1.1348625202834,-0.0591726335413945,0.944273054897198,3,12,7,1,2
4,21,1,0.1,1.17927984005966,-0.68048528572603,2.22269801999114,3,10,3,1,0
4,22,1,0.1,-1.33029872729894,-0.0591726335413945,0.143930998346042,7,8,7,2,2
4,23,1,0.1,0.0444173197762583,-0.0591726335413945,1.27552109136586,3,12,7,1,0
4,24,1,0.1,-1.3924829749857,-0.0591726335413945,-0.779456807183074,3,12,7,2,2
5,1,1,0.1,2.16756348179368,-0.395008187929654,1.00623272685957,7,8,7,2,2
5,2,1,0.1,1.08347567432217,-0.395008187929654,-1.53528751777312,3,8,7,1,2
5,3,1,0.1,0.18792487684571,-0.395008187929654,3.01395179826346,7,12,3,2,2
5,4,1,0.1,-0.532555839921067,0.371772412169085,-5.25187713908677,3,12,7,2,2
5,5,1,0.1,1.28547961360258,-0.6506017212959,3.3925016060729,3,10,7,2,1
5,7,1,0.1,0.807403623972285,-0.395008187929654,-0.972530876526247,3,8,3,2,0
5,9,1,0.1,0.120590230418908,-0.395008187929654,-0.289045369231138,3,8,7,1,1
5,10,1,0.1,-0.956764112409917,-0.6506017212959,-8.95797615736311,7,10,3,1,2
5,11,1,0.1,2.44363553214356,2.6721142124653,3.98237219624956,3,12,3,1,1
5,12,1,0.1,0.369728422198074,2.6721142124653,-0.45366769938118,7,12,3,1,1
5,13,1,0.1,0.107123301133548,-0.395008187929654,0.0373419258380714,7,8,3,2,1
5,14,1,0.1,-0.24301686028582,-0.395008187929654,-2.68668728762466,3,12,7,2,0
5,15,1,0.1,-0.357485759211383,-0.395008187929654,-0.409921505011638,7,8,7,2,0
5,16,1,0.1,-1.07123301133548,-0.395008187929654,-0.550899298423427,3,12,3,2,2
5,17,1,0.1,-1.165501516333,-0.6506017212959,-2.38884424933485,3,10,3,1,2
5,18,1,0.1,-0.559489698491788,1.13855301226782,-0.691531595126696,3,10,3,1,0
5,19,1,0.1,-0.344018829926022,-0.6506017212959,-0.991676369856239,7,10,7,2,1
5,20,1,0.1,-0.707625920630751,-0.6506017212959,-2.08508853889676,3,10,7,1,0
5,21,1,0.1,-0.552756233849107,1.13855301226782,-2.40650224532817,7,10,7,1,1
5,22,1,0.1,-0.822094819556314,-0.395008187929654,-1.07378712637492,7,8,7,1,2
5,23,1,0.1,-0.465221193494265,-0.395008187929654,-2.53577516679834,7,12,7,1,0
5,24,1,0.1,-0.795160960985593,-0.395008187929654,0.0771076201440091,7,8,3,2,0
6,1,1,0.1,0.233148016104067,-0.401593372583645,2.477367576451,3,8,7,2,1
6,2,1,0.1,2.25361710552058,0.912712210417374,1.1426081490086,7,12,3,2,1
6,3,1,0.1,0.111390490191631,0.912712210417374,-0.240483215282169,3,8,7,1,0
6,4,1,0.1,0.813702016469159,-0.401593372583645,0.615171672897471,3,8,7,2,0
6,5,1,0.1,-0.336818373312119,-0.839695233583985,1.16649433332396,7,10,7,2,2
6,6,1,0.1,2.91004898435284,2.22701779341839,1.64482870887241,7,10,3,1,1
6,7,1,0.1,-0.0915387196624291,-0.401593372583645,2.12005912596979,3,8,3,1,2
6,8,1,0.1,0.0690400463960008,-0.401593372583645,-0.296292832700632,3,8,7,1,2
6,9,1,0.1,0.40784359676104,-0.401593372583645,0.540167987117072,7,12,7,1,0
6,10,1,0.1,-0.66503431272825,-0.839695233583985,0.0416239291974711,7,10,7,1,2
6,11,1,0.1,-0.430342270027468,-0.401593372583645,1.86762408770237,7,12,7,2,0
6,12,1,0.1,-0.864434318932674,-0.839695233583985,-1.41996655692569,3,10,7,2,2
6,13,1,0.1,-0.118007747034698,-0.401593372583645,-1.0777527215709,3,8,3,1,0
6,14,1,0.1,1.42954805333061,-0.839695233583985,1.61659201853648,3,10,3,2,0
6,15,1,0.1,-0.779733431341415,-0.401593372583645,-1.03762466314237,3,12,3,2,1
6,16,1,0.1,0.317848903695326,-0.401593372583645,0.527322030537525,7,8,3,2,2
6,17,1,0.1,-1.05677591783783,0.912712210417374,-1.6014629437328,3,12,7,1,1
6,18,1,0.1,-0.250352883896041,-0.401593372583645,-1.60676213950892,3,12,3,2,2
6,19,1,0.1,-0.966781224772113,2.22701779341839,0.595185401228448,3,10,3,1,1
6,20,1,0.1,-0.91031396637794,2.22701779341839,0.378369491382678,7,10,7,1,1
6,21,1,0.1,-0.403873242655199,-0.839695233583985,1.36497876974217,7,10,3,1,0
6,22,1,0.1,-0.959722817472841,-0.401593372583645,-0.666835509498953,7,12,3,1,2
6,23,1,0.1,-0.423283862728196,-0.401593372583645,3.58410227631443,7,8,7,2,1
6,24,1,0.1,-0.289174124042035,-0.401593372583645,4.40909539066736,7,12,3,2,0
7,1,1,0.1,1.46706724705617,-0.290957186981324,1.91783781680516,7,8,7,2,2
7,2,1,0.1,3.76560498367291,-0.290957186981324,3.64385260369749,3,8,7,1,2
7,3,1,0.1,0.939971510647681,-0.290957186981324,1.91601627727411,7,12,3,2,2
7,4,1,0.1,0.085942975707351,-0.290957186981324,0.629034315801879,3,12,7,2,2
7,6,1,0.1,-0.254334018682937,-0.290957186981324,-0.136513302422027,7,8,3,1,0
7,7,1,0.1,-0.457833005524187,-0.290957186981324,3.20308054609787,3,8,3,2,0
7,8,1,0.1,-0.368871699801236,-0.290957186981324,2.2401948437339,3,8,3,2,1
7,9,1,0.1,0.065926681919687,-0.290957186981324,-1.65323811793546,3,8,7,1,1
7,10,1,0.1,-0.331063144868982,2.76409327632257,0.689397675414521,7,10,3,1,2
7,12,1,0.1,-0.00524236265867385,1.23656804467062,2.83595877373437,7,12,3,1,1
7,13,1,0.1,-0.510097772636421,-0.290957186981324,1.45555322354634,7,8,3,2,1
7,14,1,0.1,-0.472289217704167,-0.290957186981324,2.51209205076073,3,12,7,2,0
7,15,1,0.1,-0.541234229639454,-0.290957186981324,-1.76205879073516,7,8,7,2,0
7,16,1,0.1,-0.531226082745622,-0.290957186981324,0.168046875162947,3,12,3,2,2
7,17,1,0.1,-0.294366606258265,-0.800132264198639,1.3414841708986,3,10,3,1,2
7,19,1,0.1,-0.425584532199618,-0.800132264198639,4.75040914607268,7,10,7,2,1
7,20,1,0.1,-0.446712842308818,-0.800132264198639,1.06784270186171,3,10,7,1,0
7,21,1,0.1,-0.430032597485765,2.76409327632257,-1.21706247117714,7,10,7,1,1
7,22,1,0.1,-0.401120173125806,-0.290957186981324,-0.926439427295443,7,8,7,1,2
7,23,1,0.1,-0.516769870565642,-0.290957186981324,3.99826833915439,7,12,7,1,0
7,24,1,0.1,-0.337735242798203,-0.290957186981324,1.6072680784478,7,8,3,2,0
8,1,1,0.1,1.74430280251217,-0.81401415689105,0.836693616584896,3,10,7,1,1
8,2,1,0.1,1.95922110775353,-0.222003860970287,-0.552497790492115,3,8,3,2,0
8,3,1,0.1,1.11011763950489,-0.81401415689105,11.4233668051934,7,10,3,2,2
8,4,1,0.1,1.51881474455403,-0.81401415689105,-0.174586644106177,7,10,3,2,0
8,5,1,0.1,0.070758622354054,-0.222003860970287,-0.856543871403247,3,8,3,1,1
8,6,1,0.1,-0.0490319084362115,1.554027026792,-2.71665609011608,7,12,7,2,0
8,7,1,0.1,1.08193163226012,-0.222003860970287,-0.034467800396024,7,8,7,1,1
8,8,1,0.1,1.17353615580562,-0.222003860970287,-1.83971933277905,3,8,3,2,2
8,9,1,0.1,-1.06020491834228,-0.222003860970287,-4.2568279945252,3,8,7,1,2
8,10,1,0.1,-0.817100605856149,-0.222003860970287,-1.78864384206466,7,8,3,1,0
8,11,1,0.1,-0.891088874873666,-0.222003860970287,-1.32109384115507,3,8,7,1,0
8,12,1,0.1,0.204642156766704,-0.222003860970287,4.00474843331042,7,8,7,1,0
8,13,1,0.1,-0.426019755334988,-0.222003860970287,-2.47173376682921,7,8,3,1,1
8,14,1,0.1,-0.820623856761745,-0.222003860970287,-0.279850866918464,3,12,7,2,2
8,15,1,0.1,-0.915751631212838,-0.81401415689105,0.941793854457453,3,10,7,2,1
8,16,1,0.1,0.704943785361342,-0.222003860970287,3.96891026769655,7,12,7,2,2
8,17,1,0.1,0.641525269060613,3.3300579145543,5.21142152556196,7,10,7,2,1
8,18,1,0.1,-0.993263151135951,1.554027026792,0.116744169258616,3,12,3,1,2
8,19,1,0.1,-0.140636431981709,-0.222003860970287,-0.00289712426843233,7,12,3,2,1
8,20,1,0.1,-1.05315841653108,-0.222003860970287,0.506269948054036,3,12,3,1,0
8,21,1,0.1,-0.898135376684858,1.554027026792,-0.0746566989425042,7,8,7,1,2
8,22,1,0.1,-0.947460889363202,-0.81401415689105,-0.0613982729690349,3,10,3,2,1
8,23,1,0.1,-0.95803064207999,-0.81401415689105,-3.63374583419414,7,10,3,1,2
8,24,1,0.1,-0.239287457338398,-0.222003860970287,-0.863626069427441,3,12,7,2,0
9,1,1,0.1,0.260359713264582,-0.375540841706121,0.69045431786901,7,8,7,1,0
9,2,1,0.1,0.872162075787297,0.706016782407506,-0.466254974634542,3,8,7,1,2
9,3,1,0.1,0.0506971058832025,0.706016782407506,-0.738574227906146,3,12,3,2,2
9,4,1,0.1,0.229425885946018,-0.375540841706121,0.365406033393084,7,12,3,2,2
9,5,1,0.1,0.555949618753085,-0.375540841706121,1.13021832993817,7,8,3,1,1
9,6,1,0.1,-0.45455540698668,-0.375540841706121,0.000775980141736937,7,8,7,1,2
9,7,1,0.1,0.188180782854599,-0.736060049743996,-4.3839309992422,7,10,7,2,1
9,8,1,0.1,3.27468933086245,-0.375540841706121,1.10231773458732,3,8,7,2,2
9,9,1,0.1,0.0575712897317723,3.95068965474839,-1.66627267840138,3,12,7,1,1
9,10,1,0.1,-0.433932855440971,0.706016782407506,-1.16660897112032,7,12,3,1,0
9,11,1,0.1,1.06463922354725,-0.736060049743996,1.00971428064329,3,10,3,2,0
9,12,1,0.1,-0.884191897522294,-0.375540841706121,-2.60155109285104,7,8,7,1,1
9,13,1,0.1,-0.976993379477987,0.706016782407506,-0.669216614769772,3,12,3,1,1
9,14,1,0.1,0.896221719257292,-0.375540841706121,-0.173427447480596,3,8,3,1,0
9,15,1,0.1,-0.578290716260937,0.706016782407506,-0.263521328020115,7,8,3,2,1
9,16,1,0.1,-0.949496644083708,-0.375540841706121,-0.366073766332687,3,12,3,2,1
9,17,1,0.1,-0.743271128626613,-0.736060049743996,0.573170533957075,7,10,3,2,0
9,18,1,0.1,-0.935748276386568,0.706016782407506,-0.238592082905042,3,12,7,1,0
9,19,1,0.1,0.384095022538839,-0.736060049743996,-1.7726479532486,3,10,7,2,0
9,20,1,0.1,1.22618254398864,-0.375540841706121,0.164595475586128,3,12,3,1,2
9,21,1,0.1,-0.616098727428071,-0.375540841706121,-3.04389675658741,3,8,7,2,1
9,22,1,0.1,-0.66421801436806,-0.375540841706121,0.90400024020007,7,8,7,2,2
9,23,1,0.1,-1.21071563032936,-0.375540841706121,-1.11202704966185,7,8,3,1,2
9,24,1,0.1,-0.612661635503786,-0.736060049743996,-1.30132537569011,7,10,7,2,0
10,1,1,0.1,0.296138490004323,-0.435642635968827,0.182309835369151,7,12,3,1,2
10,2,1,0.1,-0.863279046458227,-0.91088914793482,-0.748048952646062,7,10,3,1,0
10,3,1,0.1,-0.850710834680855,0.990096899929152,-1.19014908284136,7,12,7,1,1
10,4,1,0.1,0.726599743379308,-0.435642635968827,0.423546684632793,7,8,7,2,2
10,5,1,0.1,-0.0212088573743149,-0.435642635968827,0.418794593009721,7,12,7,2,1
10,6,1,0.1,1.78232953267854,0.990096899929152,-0.926302047081641,7,12,7,1,2
10,7,1,0.1,0.113899419232432,0.990096899929152,0.198440376076568,3,8,3,1,0
10,8,1,0.1,0.393542131278955,-0.91088914793482,-0.196235523456135,3,10,7,1,2
10,9,1,0.1,-0.341698257697296,2.41583643582713,0.837373215475382,3,10,3,2,0
10,10,1,0.1,-0.401397263639812,-0.91088914793482,-0.47349543912481,7,10,3,2,0
10,11,1,0.1,-0.0777658103724881,0.990096899929152,-0.776105643671088,7,8,7,2,0
10,12,1,0.1,0.73916795515668,-0.435642635968827,1.45749256834779,3,12,7,2,2
10,13,1,0.1,-0.674755869797649,-0.91088914793482,-0.0173939925627996,7,10,3,1,1
10,14,1,0.1,-0.995245270120631,-0.435642635968827,1.11132209504625,3,8,7,2,1
10,15,1,0.1,2.75008183953617,-0.91088914793482,0.300466440142714,7,10,7,1,0
10,16,1,0.1,0.54750272555176,-0.435642635968827,-0.936745016232103,3,12,3,2,2
10,17,1,0.1,0.849139808208683,-0.435642635968827,0.678095325546241,3,8,3,2,1
10,18,1,0.1,-0.847568781736512,-0.435642635968827,-0.304860119870014,3,12,3,1,2
10,19,1,0.1,-1.33772904105401,0.990096899929152,-2.11573848674704,3,12,7,1,1
10,20,1,0.1,0.054200413289916,2.41583643582713,0.508895348083715,3,10,7,2,0
10,21,1,0.1,-1.3440131469427,-0.435642635968827,0.0325020296097439,7,12,3,2,1
10,22,1,0.1,1.07536762020138,-0.435642635968827,-0.16472070606243,3,8,7,1,0
10,23,1,0.1,-0.800437987571368,-0.435642635968827,1.14005058748814,3,8,3,1,1
10,24,1,0.1,-0.772159511072281,-0.435642635968827,-0.468611860577797,7,8,3,2,2
12,1,1,0.1,1.63379658227562,-0.0687084700658151,4.35456408081468,7,8,7,2,2
12,2,1,0.1,1.03887795843342,-0.0687084700658151,1.80013128669411,3,8,7,1,2
12,3,1,0.1,0.997957629809359,-0.0687084700658151,-0.156091563570843,7,12,3,2,2
12,4,1,0.1,1.58343310089215,-0.0687084700658151,1.16734434680051,3,12,7,2,2
12,5,1,0.1,-0.558588716698391,-0.893210110855586,-0.759425708673906,3,10,7,2,1
12,6,1,0.1,0.946020289632659,-0.0687084700658151,2.64424630805321,7,8,3,1,0
12,7,1,0.1,1.61018870037712,-0.0687084700658151,0.621089493008957,3,8,3,2,0
12,8,1,0.1,0.340084654237832,-0.0687084700658151,0.0636548750433297,3,8,3,2,1
12,9,1,0.1,0.333789219064899,-0.0687084700658151,2.86370534449318,3,8,7,1,1
12,10,1,0.1,0.920838548940926,-0.893210110855586,1.13396863725819,7,10,3,1,2
12,11,1,0.1,0.90352610221536,2.4047964523035,2.54672687948473,3,12,3,1,1
12,12,1,0.1,-0.234373805292328,2.4047964523035,2.47092686935868,7,12,3,1,1
12,13,1,0.1,-1.11416087070975,-0.0687084700658151,0.478686257623705,7,8,3,2,1
12,14,1,0.1,-0.324083756506627,-0.0687084700658151,-2.30942521641932,3,12,7,2,0
12,15,1,0.1,-0.621543068427724,-0.0687084700658151,14.9777197991937,7,8,7,2,0
12,16,1,0.1,0.417203735106265,-0.0687084700658151,-0.652002424619194,3,12,3,2,2
12,17,1,0.1,-0.659315679465324,-0.893210110855586,-0.261182449425715,3,10,3,1,2
12,18,1,0.1,-0.846604875860088,-0.893210110855586,-3.78684555569093,3,10,3,1,0
12,19,1,0.1,-1.26997289123985,-0.893210110855586,1.87394683906463,7,10,7,2,1
12,20,1,0.1,-1.03074635466839,-0.893210110855586,-2.77475365825269,3,10,7,1,0
12,21,1,0.1,-0.819849276375122,-0.893210110855586,-3.72257313446697,7,10,7,1,1
12,22,1,0.1,-0.936314827074387,-0.0687084700658151,-0.584285662585736,7,8,7,1,2
12,23,1,0.1,-0.99454760242402,2.4047964523035,0.104501739583593,7,12,7,1,0
12,24,1,0.1,-1.31561479624362,-0.0687084700658151,-0.246823912720302,7,8,3,2,0
13,1,1,0.1,0.786978041941942,3.07487454701057,1.0998555145103,7,10,7,1,1
13,2,1,0.1,0.495618884396345,-0.229468249776909,-0.262462153275357,3,8,3,1,1
13,3,1,0.1,-0.376146213974209,1.42270314861683,-0.466022849133389,3,12,7,1,0
13,4,1,0.1,0.958093737643324,-0.229468249776909,1.9421699696453,3,8,7,2,1
13,5,1,0.1,1.40669434529289,-0.229468249776909,1.61594378288345,7,12,3,1,2
13,6,1,0.1,0.810101784604291,-0.780192049241489,0.582384094078455,7,10,3,2,2
13,7,1,0.1,1.27951376064997,-0.780192049241489,-1.31883397302982,3,10,3,2,2
13,8,1,0.1,1.39744484822795,1.42270314861683,0.985001285519263,7,12,3,1,1
13,9,1,0.1,0.49793125866258,1.42270314861683,2.40665593990294,3,12,7,2,2
13,10,1,0.1,0.523367375591164,-0.780192049241489,11.2435566748626,3,10,7,2,0
13,11,1,0.1,0.375375422552131,-0.229468249776909,0.468548193774579,7,12,3,1,0
13,12,1,0.1,1.19164353853305,-0.229468249776909,1.28740003683524,7,12,7,2,2
13,13,1,0.1,0.363813551220956,-0.229468249776909,0.76115752597862,3,8,3,2,0
13,14,1,0.1,-0.850182938552362,-0.780192049241489,-1.61758609404558,3,10,3,2,1
13,15,1,0.1,-1.11379360490314,-0.229468249776909,-0.781047627886923,3,8,3,1,2
13,16,1,0.1,0.449371399071647,-0.780192049241489,0.666908658595564,7,10,7,1,2
13,17,1,0.1,0.0886410135390041,-0.229468249776909,1.56773455883996,7,12,3,2,1
13,18,1,0.1,-1.7011366685268,-0.780192049241489,-0.483079336788277,3,10,3,1,0
13,19,1,0.1,-0.998174891591396,-0.229468249776909,0.36914368692948,7,8,7,1,0
13,20,1,0.1,-0.713752856844504,1.42270314861683,0.245229152945031,3,12,7,1,1
13,21,1,0.1,-1.05367187398103,-0.780192049241489,0.0118074554650525,3,10,7,1,2
13,22,1,0.1,-1.33809390872792,-0.229468249776909,-1.78103543536385,7,12,7,2,1
13,23,1,0.1,-1.4490878735072,-0.780192049241489,-0.863679156719221,7,10,7,2,0
13,24,1,0.1,-1.03054813131868,-0.229468249776909,-0.230854522611632,7,8,3,2,0
14,2,1,0.1,-0.315219554572394,-0.268182305786454,-1.06207603176456,3,8,7,1,2
14,3,1,0.1,1.56452084710522,1.50182091240414,3.83437247169914,7,12,7,2,2
14,4,1,0.1,0.895953384652873,-0.858183378516652,0.304108747551904,7,10,3,1,1
14,10,1,0.1,-0.765083789141779,1.50182091240414,4.14114063829568,3,12,3,1,2
14,11,1,0.1,-0.994860598183372,-0.268182305786454,1.4049421907147,7,8,7,2,1
14,16,1,0.1,-0.456407714344939,-0.268182305786454,7.98353403599405,7,12,7,1,1
14,17,1,0.1,-0.665421558714099,-0.858183378516652,-0.0153833302284321,7,10,7,2,0
14,19,1,0.1,0.513914834680103,-0.268182305786454,2.65752869793789,7,8,3,2,2
14,20,1,0.1,-0.986555412314399,1.50182091240414,4.35222020141438,3,12,3,1,1
14,22,1,0.1,1.71262999510191,-0.858183378516652,-0.443044749181917,7,10,3,1,0
14,24,1,0.1,-0.503470434269121,-0.858183378516652,4.20573351859484,7,10,7,1,2
15,1,1,0.1,1.08278858340077,-0.715491385636572,-1.97244489201623,3,8,7,2,2
15,2,1,0.1,0.64626485667867,0.946295058422562,1.62936945637572,3,10,7,1,0
15,3,1,0.1,2.21932333135292,0.115401836392995,2.32418082096098,3,12,3,2,0
15,4,1,0.1,1.31874735460191,0.115401836392995,-1.29225525709732,3,12,3,1,0
15,5,1,0.1,0.249067591823422,0.115401836392995,0.769823957725723,7,12,7,1,1
15,6,1,0.1,2.44741681018068,-0.99245579297976,2.77925617131061,3,10,3,1,2
15,7,1,0.1,-0.671171615861012,-0.715491385636572,1.03494191647696,7,8,3,1,0
15,8,1,0.1,-0.710498077727868,2.6080815024817,0.640013722120093,3,12,7,1,1
15,9,1,0.1,1.01593359822712,-0.715491385636572,-1.86316402527491,3,8,7,1,2
15,10,1,0.1,-0.226782596765537,0.946295058422562,-0.64341414898142,7,10,3,2,0
15,11,1,0.1,0.103559682916055,-0.715491385636572,-0.60579848962254,3,8,7,2,0
15,12,1,0.1,0.426036670224275,-0.715491385636572,-1.3341185354581,7,8,3,1,2
15,13,1,0.1,-0.0340829336179419,-0.715491385636572,0.565428207374124,7,8,7,1,2
15,14,1,0.1,-0.970052726049118,0.115401836392995,-2.28992315690308,3,12,3,2,2
15,15,1,0.1,-1.1116279887698,0.115401836392995,-5.26319094182427,7,12,3,2,2
15,16,1,0.1,-0.66330632348764,0.115401836392995,2.15536095324402,3,12,7,2,1
15,17,1,0.1,-0.541394291700386,2.6080815024817,-2.09050285052941,3,12,3,1,1
15,18,1,0.1,-1.02117712647603,0.115401836392995,-2.39841769787522,7,12,7,2,2
15,19,1,0.1,-0.266109058632393,-0.715491385636572,2.29859859990661,7,8,7,2,0
15,20,1,0.1,-0.596451338313985,-0.715491385636572,-1.17381122287092,7,8,3,2,1
15,21,1,0.1,-0.616114569247413,-0.715491385636572,0.859809723690809,3,8,3,2,1
15,22,1,0.1,-0.293637581939192,0.946295058422562,-0.961346743478401,7,10,7,2,1
15,23,1,0.1,-0.793083647648266,-0.715491385636572,-2.364914345397,7,8,3,1,1
15,24,1,0.1,-0.993648603169232,-0.715491385636572,-2.85429916769727,7,8,7,1,0
16,1,1,0.1,-0.0767076766725516,-0.300796416641907,2.79033269733746,3,12,7,2,2
16,2,1,0.1,-0.0369333258053026,-0.300796416641907,-0.256877302834078,3,8,7,1,2
16,3,1,0.1,1.44202314929934,-0.300796416641907,2.24752143895395,7,12,7,2,2
16,4,1,0.1,-0.737448933936647,1.76180758318831,2.67759181483876,7,10,3,1,1
16,5,1,0.1,-0.0734607908874701,-0.300796416641907,0.416685689049836,3,12,3,2,1
16,6,1,0.1,0.620561045673711,-0.300796416641907,0.429795433678752,7,8,3,2,1
16,7,1,0.1,-0.0109582395246502,-0.300796416641907,0.780094940134354,7,8,3,2,0
16,8,1,0.1,-0.339705425264157,-0.644563749946943,-0.526491591486758,3,10,7,2,1
16,9,1,0.1,-0.334023375140264,-0.300796416641907,-1.41402261836062,3,8,3,1,0
16,10,1,0.1,-1.01181078277604,0.730505583273202,-0.0485434376561906,3,12,3,1,2
16,11,1,0.1,2.18961860131437,-0.300796416641907,1.62252076890888,7,8,7,2,1
16,12,1,0.1,-0.677381546912638,-0.644563749946943,1.35137705357333,7,10,3,1,2
16,13,1,0.1,0.749624755630703,-0.300796416641907,2.81146434779235,3,8,7,2,0
16,14,1,0.1,-0.898981501744454,0.730505583273202,-1.21597762268696,3,12,3,2,2
16,15,1,0.1,-0.22038237266241,-0.644563749946943,0.88200460051837,3,10,7,1,0
16,16,1,0.1,0.573481201790029,3.82441158301853,0.256771449649655,7,12,7,1,1
16,17,1,0.1,0.221194094108681,-0.644563749946943,1.88314199923881,7,10,7,2,0
16,18,1,0.1,-0.839725836166716,-0.300796416641907,2.84870590261058,7,12,7,1,0
16,19,1,0.1,-0.0702139051023885,-0.300796416641907,0.563080581566687,7,8,3,2,2
16,20,1,0.1,-0.574292923236299,0.730505583273202,1.03048453556324,3,12,3,1,1
16,21,1,0.1,2.82925510097544,-0.300796416641907,1.89769517626186,3,12,3,2,0
16,22,1,0.1,-0.585657023484085,-0.644563749946943,0.886056460040256,7,10,3,1,0
16,23,1,0.1,-1.0183045543462,-0.300796416641907,0.0582470368546942,3,8,7,1,1
16,24,1,0.1,-1.11976973513,-0.644563749946943,0.835527027305968,7,10,7,1,2
17,1,1,0.1,1.15396500324483,-0.25993450567827,2.96440659264411,3,8,7,2,1
17,2,1,0.1,2.26490879391686,1.07687152352426,2.18974978768929,7,12,7,2,1
17,3,1,0.1,0.419764882326164,-0.25993450567827,1.66534599856458,3,8,3,2,2
17,4,1,0.1,1.66186175939697,-0.25993450567827,0.859253252742997,7,8,7,1,1
17,5,1,0.1,-0.633317252581696,-0.705536515412446,-0.205703490583275,7,10,3,1,2
17,6,1,0.1,0.574062631030612,2.41367755272679,-0.0207919015654305,7,10,3,1,1
17,7,1,0.1,-0.818474551027034,-0.705536515412446,-1.7008851891907,3,10,3,1,2
17,8,1,0.1,-0.94705600828074,-0.705536515412446,1.15230715597248,3,10,7,2,0
17,9,1,0.1,-1.19264659163532,-0.25993450567827,-0.666025709086797,7,8,3,2,0
17,10,1,0.1,1.63228802422862,-0.25993450567827,1.67553334622301,7,8,3,2,1
17,11,1,0.1,-0.875050392218665,-0.705536515412446,1.54024917123619,3,10,3,2,0
17,12,1,0.1,-0.68860727920079,-0.25993450567827,-0.986750881164584,7,8,7,1,2
17,13,1,0.1,0.620351955641947,-0.705536515412446,1.30331278703743,3,10,7,1,1
17,14,1,0.1,-0.76318452440794,-0.705536515412446,0.539147060489906,7,10,3,2,2
17,15,1,0.1,-0.148565158735221,-0.25993450567827,-0.7152214636915,3,12,3,1,1
17,16,1,0.1,-0.692464722918401,-0.705536515412446,-1.13825291013891,3,10,3,2,1
17,17,1,0.1,-0.00583974118360595,-0.25993450567827,-0.0249583891974794,7,8,7,2,0
17,18,1,0.1,-0.299005463722058,2.41367755272679,0.0985080535876338,7,10,3,1,0
17,19,1,0.1,1.0523856520144,-0.25993450567827,0.413304244344191,3,12,7,1,2
17,20,1,0.1,-0.439159252128598,-0.25993450567827,0.876154294689757,7,8,7,1,0
17,21,1,0.1,-0.884051094226424,2.41367755272679,0.477738020522035,3,10,3,1,0
17,22,1,0.1,0.826082287247878,-0.25993450567827,-0.906004757213888,7,8,7,2,2
17,23,1,0.1,-0.929054604265221,-0.25993450567827,-0.0646210218027721,3,12,7,1,0
17,24,1,0.1,-0.889194352516572,-0.25993450567827,-1.10464260275023,3,12,7,2,2
18,1,1,0.1,2.06919839577808,0.295163026345123,1.48183322067278,7,12,3,1,1
18,2,1,0.1,0.199849867580136,-0.885489079035371,0.0247445364404087,3,10,7,1,1
18,3,1,0.1,-0.0765580771875939,-0.885489079035371,-0.0453157695896696,7,10,3,2,2
18,4,1,0.1,1.84232019833867,0.295163026345123,1.9299110141904,3,8,7,1,2
18,5,1,0.1,0.599283313776277,3.83711934248661,1.98663927948049,3,12,3,1,1
18,6,1,0.1,0.985934889694142,0.295163026345123,1.8157939944632,3,12,3,2,0
18,7,1,0.1,0.0256968850386183,0.295163026345123,3.93318763499322,7,8,7,1,1
18,8,1,0.1,-0.599017024812147,0.295163026345123,2.49103773883553,7,12,3,1,2
18,9,1,0.1,-0.848263495238539,0.295163026345123,0.455128754605387,3,8,3,1,0
18,10,1,0.1,-0.490371127446796,-0.885489079035371,4.50356051102509,7,10,3,2,1
18,11,1,0.1,-0.298643073272648,-0.885489079035371,4.3203250741425,3,10,7,2,1
18,12,1,0.1,0.695147340863351,0.295163026345123,-1.55625480832778,7,8,3,2,0
18,13,1,0.1,0.01930594989948,-0.885489079035371,1.5948568145615,3,10,3,2,2
18,14,1,0.1,0.271747887895441,-0.885489079035371,0.962731925903817,7,10,7,2,1
18,15,1,0.1,-1.00004820479307,0.295163026345123,-0.191970014325274,7,12,7,2,0
18,16,1,0.1,-1.03999154941269,-0.885489079035371,1.39282668737625,3,10,3,2,1
18,17,1,0.1,2.36477914596322,-0.885489079035371,1.90613671773886,7,10,7,2,2
18,18,1,0.1,-0.229940520526912,0.295163026345123,1.28330072276287,3,12,7,2,2
18,19,1,0.1,-0.522325803142488,0.295163026345123,4.13086056300559,7,8,7,1,0
18,20,1,0.1,-0.43924364633369,0.295163026345123,-0.520951099353984,3,8,3,1,2
18,21,1,0.1,-1.18858079139765,0.295163026345123,-0.315757861374493,3,8,7,1,0
18,22,1,0.1,-1.193373992752,0.295163026345123,0.389082128429921,3,8,7,2,0
18,23,1,0.1,-0.189997175907298,0.295163026345123,-0.112392331876221,7,8,3,1,0
18,24,1,0.1,-0.956909392603889,-0.885489079035371,-1.58745789368079,7,10,7,1,2
19,1,1,0.1,1.06182546496613,-0.978945010372561,2.58507542200369,3,10,7,2,2
19,2,1,0.1,-0.215589337084942,1.6315750172876,0.0193754534263639,7,12,7,2,0
19,3,1,0.1,2.63505186781269,-0.326315003457521,1.15623518593038,7,12,7,2,1
19,4,1,0.1,2.63300472870684,-0.326315003457521,0.0663995018238817,3,12,3,2,0
19,5,1,0.1,-0.370148339576699,1.6315750172876,-1.0731521718718,3,12,7,1,1
19,6,1,0.1,0.0239259382996345,-0.326315003457521,0.844473116697124,3,12,3,1,0
19,7,1,0.1,0.334067512836073,-0.326315003457521,0.00481330956191635,7,8,3,1,1
19,8,1,0.1,-0.673124927242658,1.6315750172876,1.00248092867258,7,12,3,1,0
19,9,1,0.1,-0.332276266118454,-0.978945010372561,6.45879338531312,3,10,3,2,2
19,10,1,0.1,-0.217636476190793,-0.978945010372561,5.54787674422492,7,10,3,2,2
19,11,1,0.1,1.39755627832571,-0.326315003457521,0.739239408858617,7,8,7,1,2
19,12,1,0.1,0.455872289634213,-0.326315003457521,1.08293857562143,7,12,3,1,2
19,13,1,0.1,-0.0241818306878659,-0.326315003457521,0.885230625550407,3,8,3,1,2
19,14,1,0.1,-0.201259363343984,-0.326315003457521,9.15531994444541,3,8,3,1,1
19,15,1,0.1,-0.686431331430691,1.6315750172876,0.811577427456051,3,12,7,1,0
19,16,1,0.1,-0.707926292042127,-0.326315003457521,0.411341723837824,7,8,3,2,1
19,17,1,0.1,-0.729421252653563,-0.978945010372561,-1.03330549258766,7,10,7,1,0
19,18,1,0.1,-0.517542355197976,-0.326315003457521,-1.71574265433208,3,12,7,2,1
19,19,1,0.1,-0.954606554297182,1.6315750172876,7.33912030744447,7,12,7,1,1
19,20,1,0.1,-0.0159932742644616,-0.978945010372561,0.65939183507782,7,10,7,2,2
19,21,1,0.1,-0.869650281404362,-0.326315003457521,0.220160575160678,7,12,3,2,0
19,22,1,0.1,-0.54415516357404,-0.326315003457521,-0.579157242890558,3,12,7,2,0
19,23,1,0.1,-0.575885819714732,1.6315750172876,-0.791526485377764,3,12,7,1,2
19,24,1,0.1,-0.905475215756756,-0.978945010372561,5.58464373714075,3,10,3,2,1
20,1,1,0.1,0.0920476412209141,-0.599979131523567,-0.729979325836312,7,10,3,1,2
20,2,1,0.1,1.42930688743486,-0.279990261377665,2.65611154415877,3,12,3,1,2
20,3,1,0.1,-0.670989819035713,-0.279990261377665,1.45395653677806,3,12,3,2,0
20,4,1,0.1,0.589632477021451,-0.599979131523567,3.13510537268799,3,10,7,1,2
20,5,1,0.1,0.771784068698434,1.63994295949775,1.69976092316757,7,10,3,1,0
20,6,1,0.1,0.582968394399123,-0.599979131523567,2.41963440747314,3,10,7,1,1
20,7,1,0.1,0.0187427323752992,1.63994295949775,1.95818846404266,3,10,7,1,0
20,8,1,0.1,1.27270094581013,0.679976349060042,0.862300074214534,7,12,3,1,1
20,9,1,0.1,0.30529828513543,-0.599979131523567,6.0034297467653,3,10,3,1,1
20,10,1,0.1,2.72991367922599,-0.279990261377665,4.16663846132086,3,12,3,2,2
20,11,1,0.1,-0.673211179909823,-0.279990261377665,-0.409584246771939,3,8,3,1,0
20,12,1,0.1,0.100933084717352,-0.279990261377665,-1.53215625447581,3,8,3,2,1
20,13,1,0.1,0.648498540185354,-0.599979131523567,0.777312195799309,7,10,7,1,0
20,14,1,0.1,0.485228515938303,-0.279990261377665,0.419735832117292,3,8,7,2,1
20,15,1,0.1,0.785112233943091,-0.599979131523567,0.853879016105773,7,10,3,2,1
20,16,1,0.1,-1.04639980676023,3.55987618037316,-3.33981608840387,7,12,7,1,1
20,17,1,0.1,-1.11637267429468,0.679976349060042,-4.48368861070596,7,12,7,2,1
20,18,1,0.1,-0.887572504261393,-0.279990261377665,-1.18491057996355,7,12,3,2,2
20,19,1,0.1,-0.812046234541669,-0.279990261377665,-4.95446298802037,7,12,7,1,2
20,20,1,0.1,-1.06639205462721,-0.279990261377665,-1.8992675841906,7,12,3,2,0
20,21,1,0.1,-1.04862116763433,-0.599979131523567,5.23498011719486,7,10,7,2,2
20,22,1,0.1,-1.15635717002865,-0.279990261377665,-8.43835656716297,3,8,7,2,0
20,23,1,0.1,-0.492170268669895,-0.599979131523567,0.657777551180548,3,10,7,2,2
20,24,1,0.1,-0.842034606342148,-0.599979131523567,0.139328993452818,7,10,7,2,0
21,1,1,0.1,1.48226186016653,-0.435494170355693,-0.820541530285562,3,12,7,2,2
21,2,1,0.1,1.35116110599867,-0.435494170355693,-0.810117560877777,3,8,7,1,2
21,3,1,0.1,0.593690081917666,-0.435494170355693,-1.90812250625897,7,12,7,2,2
21,4,1,0.1,1.70367646720559,2.17747085177846,1.90147514900212,7,10,3,1,1
21,5,1,0.1,1.64249611526059,-0.435494170355693,1.97188280448928,3,12,3,2,1
21,6,1,0.1,1.73280996813178,-0.435494170355693,-2.61860042760957,7,8,3,2,1
21,7,1,0.1,-0.830938113373136,-0.435494170355693,-4.61458726493215,7,8,3,2,0
21,8,1,0.1,-0.868811664577186,2.17747085177846,-4.19075714227419,3,10,7,2,1
21,9,1,0.1,0.748097636826485,-0.435494170355693,-3.09733534395585,3,8,3,1,0
21,10,1,0.1,-0.0122867373471331,-0.435494170355693,-3.21296879346235,3,12,3,1,2
21,11,1,0.1,0.0314135140421553,-0.435494170355693,-0.188934228310936,7,8,7,2,1
21,12,1,0.1,-0.428895800591682,-0.870988340711385,1.75676333393123,7,10,3,1,2
21,13,1,0.1,-0.297795046423817,-0.435494170355693,3.02353695615645,3,8,7,2,0
21,14,1,0.1,-0.70275070929789,-0.435494170355693,-5.55196888060309,3,12,3,2,2
21,15,1,0.1,-0.679443908556936,-0.870988340711385,4.28639644605502,3,10,7,1,0
21,16,1,0.1,-0.423069100406444,0.870988340711385,-7.13659583104553,7,12,7,1,1
21,17,1,0.1,-0.676530558464317,-0.870988340711385,4.66589358510388,7,10,7,2,0
21,18,1,0.1,0.520856329602185,-0.435494170355693,-0.419740652503785,7,12,7,1,0
21,19,1,0.1,-1.04943937031958,0.870988340711385,-0.164838291502547,7,8,3,2,2
21,21,1,0.1,-1.08148622133839,0.870988340711385,0.33402604299112,3,12,3,2,0
21,22,1,0.1,-1.11061972226458,2.17747085177846,-2.9951931989628,7,10,3,1,0
21,23,1,0.1,-0.714404109668367,-0.435494170355693,-3.86577097819416,3,8,7,1,1
21,24,1,0.1,-0.929992016522189,-0.870988340711385,1.10813037789516,7,10,7,1,2
22,1,1,0.1,0.0951742196796061,-0.419322312840655,5.20567649819916,7,8,7,1,1
22,2,1,0.1,0.408982923028798,1.0273396664596,0.307217143116587,3,12,7,2,2
22,3,1,0.1,3.29831915508538,1.0273396664596,2.64106635998479,3,12,3,1,0
22,4,1,0.1,-0.28751932099014,-0.419322312840655,0.448997751775339,3,8,3,1,2
22,5,1,0.1,0.183193734033648,-0.419322312840655,3.33159680110238,7,12,3,1,1
22,6,1,0.1,-0.670212861659885,-0.419322312840655,-0.330887424489394,7,8,7,2,2
22,7,1,0.1,0.711310820157897,-0.901542972607407,1.74971298725174,7,10,3,2,0
22,8,1,0.1,-0.773540117640717,-0.419322312840655,-2.12565533838384,7,12,3,2,1
22,9,1,0.1,-0.624289636779516,1.0273396664596,-3.28327081509921,7,12,7,1,2
22,10,1,0.1,1.23560097087545,2.47400164575986,1.080112113243,3,10,3,1,1
22,11,1,0.1,0.0377701885791443,-0.419322312840655,-1.48428849837905,7,8,3,1,0
22,12,1,0.1,-0.0502493257748972,-0.901542972607407,0.44185522234888,3,10,3,2,0
22,13,1,0.1,0.477867760349352,-0.419322312840655,-1.98589544942732,7,8,7,1,0
22,14,1,0.1,-1.19067607697074,-0.419322312840655,-1.4132322464888,3,8,3,2,2
22,15,1,0.1,1.12844677948792,-0.419322312840655,1.09890503013528,3,12,7,2,0
22,16,1,0.1,-0.448250608071433,2.47400164575986,-0.691926856325086,7,10,7,2,1
22,17,1,0.1,-1.08734882098991,-0.419322312840655,-10.6698829128845,7,8,3,1,2
22,18,1,0.1,0.864388236425795,1.0273396664596,0.67586576781868,3,12,3,2,1
22,19,1,0.1,-0.635770442999608,-0.901542972607407,-0.74491726678995,3,10,7,1,2
22,21,1,0.1,-0.727616892760347,-0.901542972607407,0.108889284119847,7,10,7,2,0
22,22,1,0.1,-0.90365592146843,-0.419322312840655,-2.7666270803884,7,8,3,2,2
22,23,1,0.1,-0.597501088932634,-0.419322312840655,-2.23081291464035,3,12,7,2,1
22,24,1,0.1,-0.444423672664735,-0.419322312840655,0.481465059945226,3,8,7,1,1
1,1,1,0.5,2.28434771725881,-0.255609437163093,0.518268326398981,7,8,3,1,0
1,3,1,0.5,-0.171026510066587,-0.843511142638205,-0.25253943449634,3,10,3,1,1
1,4,1,0.5,1.60070853734751,1.50809567926225,6.37470839221902,3,12,3,1,2
1,5,1,0.5,-0.385782273389508,-0.255609437163093,2.04824145226367,7,12,3,1,2
1,6,1,0.5,0.0186744142019933,-0.255609437163093,2.41169249695266,7,12,3,2,0
1,7,1,0.5,-0.0672278911271752,-0.255609437163093,1.92182205401229,7,12,7,2,0
1,8,1,0.5,-0.471684578718677,-0.255609437163093,-1.80525135100519,3,12,3,2,0
1,9,1,0.5,-0.428733426054093,-0.255609437163093,-1.34495308090798,3,8,7,2,0
1,10,1,0.5,-0.740129282872328,-0.255609437163093,-0.404132221858176,7,8,3,2,2
1,11,1,0.5,-0.840348639089692,-0.843511142638205,-0.155826170790008,7,10,7,1,1
1,12,1,0.5,-0.718653706540036,-0.255609437163093,-0.906323456847508,7,8,7,1,0
1,13,1,0.5,-0.16386798462249,1.50809567926225,2.15582080783877,3,12,7,1,0
1,14,1,0.5,-0.919092418974763,-0.255609437163093,0.712487071873852,7,8,3,1,1
1,15,1,0.5,1.10677028170479,-0.843511142638205,0.353623218652835,3,10,7,1,2
1,16,1,0.5,0.240588702969012,-0.843511142638205,1.19363630037833,3,10,7,2,2
1,17,1,0.5,2.69954219301646,1.50809567926225,7.35828090481076,7,12,7,1,2
1,18,1,0.5,0.430289627237592,-0.255609437163093,0.196267731240325,7,8,7,2,1
1,19,1,0.5,-0.679281816597501,-0.255609437163093,1.85029924678746,7,8,3,2,1
1,20,1,0.5,-0.546849095881699,-0.843511142638205,-4.38639364337727,7,10,7,2,2
1,21,1,0.5,-0.443050476942287,-0.255609437163093,1.94064875858144,3,8,3,2,2
1,22,1,0.5,-0.29987996806034,-0.255609437163093,1.67292387138188,3,8,3,2,1
1,23,1,0.5,-0.589800248546284,3.27180079568758,1.24275658188291,3,10,3,1,0
1,24,1,0.5,-0.915513156252714,-0.255609437163093,-0.706857666400451,3,8,7,1,1
2,1,1,0.5,0.464088670255891,-0.420558293861036,1.30816246846315,7,12,3,1,2
2,2,1,0.5,1.02587331658995,1.53300281310635,1.41881038236114,7,10,3,1,0
2,3,1,0.5,0.830743635510334,3.48656392007375,1.50678215794776,7,12,7,1,1
2,4,1,0.5,1.23673926227276,-0.420558293861036,0.782130349606181,7,8,7,2,2
2,5,1,0.5,-0.0221619059828328,-0.420558293861036,1.41272709839242,7,12,7,2,1
2,6,1,0.5,0.674954615938704,0.556222259622659,0.393674365906682,7,12,7,1,2
2,7,1,0.5,1.43029531689206,-0.420558293861036,0.422986092132769,3,8,3,1,0
2,8,1,0.5,1.83943819657513,-0.746151811688934,2.07241615864211,3,10,7,1,2
2,9,1,0.5,0.0816974403982539,-0.746151811688934,0.0826011395910629,3,10,3,2,0
2,10,1,0.5,-0.402979509380151,-0.746151811688934,0.0574462588175783,7,10,3,2,0
2,11,1,0.5,-0.0945487231575296,-0.420558293861036,0.970996410610209,7,8,7,2,0
2,12,1,0.5,0.169820522176146,0.556222259622659,1.61109130347773,3,12,7,2,2
2,13,1,0.5,-0.989942179079322,1.53300281310635,0.18896827485251,7,10,3,1,1
2,14,1,0.5,1.68050192408286,-0.420558293861036,0.391663935065471,3,8,7,2,1
2,15,1,0.5,-1.0607553697937,-0.746151811688934,2.30573931314813,7,10,7,1,0
2,16,1,0.5,-0.612271828602644,-0.420558293861036,2.3513157637706,3,12,3,2,2
2,17,1,0.5,0.475104055478128,0.556222259622659,0.548359638698919,3,8,3,2,1
2,18,1,0.5,-0.115005867141683,-0.420558293861036,0.623688379170231,3,12,3,1,2
2,19,1,0.5,-0.706689416221813,0.556222259622659,0.359411413729138,3,12,7,1,1
2,20,1,0.5,-1.42268945566718,-0.746151811688934,0.996308133349078,3,10,7,2,0
2,21,1,0.5,-0.635876225507436,-0.420558293861036,-0.185819306890531,7,12,3,2,1
2,22,1,0.5,-1.38649604707984,-0.420558293861036,0.13646588675463,3,8,7,1,0
2,23,1,0.5,-1.20080812476213,-0.420558293861036,-0.944562274332617,3,8,3,1,1
2,24,1,0.5,-1.25903230379396,-0.420558293861036,-0.487538312888336,7,8,3,2,2
3,1,1,0.5,3.2587883326523,-0.313103974450949,0.3033902899071,7,8,3,2,0
3,2,1,0.5,0.338950201642425,1.29714503701107,1.82582517302709,3,8,3,1,0
3,3,1,0.5,0.773530760676452,-0.313103974450949,1.02407223570721,3,8,7,2,2
3,4,1,0.5,-0.231436782089736,1.29714503701107,-0.139307850154442,7,8,3,1,1
3,5,1,0.5,-0.557372201365257,-0.313103974450949,2.29873798300133,7,8,7,1,1
3,6,1,0.5,-0.163533569740669,2.90739404847309,-0.651249055797728,7,10,7,2,1
3,7,1,0.5,-0.38761417049259,-0.849853644938288,0.664378486855351,7,10,3,1,2
3,8,1,0.5,-0.28575935196899,1.29714503701107,3.03968866459821,7,8,7,2,0
3,9,1,0.5,-0.143162606035949,1.29714503701107,-0.0554174287706107,3,12,7,1,1
3,10,1,0.5,-0.808614087056804,-0.849853644938288,-1.61947628292231,7,10,3,2,2
3,11,1,0.5,-0.964791475459657,-0.849853644938288,-1.28753484744708,3,10,7,1,0
3,12,1,0.5,-0.849356014466244,1.29714503701107,-0.895740609786208,3,12,3,1,1
3,13,1,0.5,-0.50983995272091,-0.313103974450949,2.33463531050678,3,12,7,2,0
3,14,1,0.5,0.522288874984905,-0.849853644938288,0.799640142275829,3,10,3,2,2
3,15,1,0.5,-0.910468905580404,-0.849853644938288,-0.733687484755805,7,10,3,2,1
3,16,1,0.5,-0.217856139619923,-0.313103974450949,0.0456605347814033,3,8,3,1,2
3,17,1,0.5,-0.231436782089736,-0.313103974450949,1.07274453671019,7,8,3,1,0
3,18,1,0.5,0.0605470310112509,-0.313103974450949,0.474167557627791,3,8,3,2,0
3,19,1,0.5,0.0130147823669042,-0.313103974450949,0.0794363253974049,3,8,7,1,2
3,20,1,0.5,0.705627548327385,-0.313103974450949,-0.45054014602065,7,12,7,2,2
3,21,1,0.5,0.352530844112238,-0.313103974450949,2.07563683100265,3,12,7,2,1
3,22,1,0.5,2.17233693506723,-0.849853644938288,0.254042886561502,3,10,3,2,1
3,23,1,0.5,-1.10059790015779,-0.849853644938288,-0.754245735865259,7,10,7,1,2
3,24,1,0.5,-0.83577537199643,-0.313103974450949,0.00923830524792803,7,12,7,1,0
4,1,1,0.5,-0.00888346395525166,-0.0591726335413945,0.725648845948145,3,8,7,2,1
4,2,1,0.5,2.30747976237662,-0.0591726335413945,1.15514518280558,7,12,7,2,1
4,3,1,0.5,1.46799241860534,-0.0591726335413945,0.824198518390505,3,8,3,2,2
4,4,1,0.5,0.81505781789434,-0.0591726335413945,0.178879399339018,7,8,7,1,1
4,5,1,0.5,0.370884620131757,-0.68048528572603,0.784751100344176,7,10,3,1,2
4,6,1,0.5,0.0954972375189553,3.66870327956642,1.15517871316673,7,10,3,1,1
4,7,1,0.5,-0.144356289272839,-0.68048528572603,0.223338286718119,3,10,3,1,2
4,9,1,0.5,-1.33029872729894,-0.0591726335413945,-1.20106630373608,7,8,3,2,0
4,10,1,0.5,-1.01271489089869,-0.0591726335413945,1.56879143551232,7,8,3,2,1
4,11,1,0.5,-0.424185403863267,-0.68048528572603,-0.109302598316182,3,10,3,2,0
4,12,1,0.5,0.21320313492604,-0.0591726335413945,-0.241147302669013,7,8,7,1,2
4,13,1,0.5,-0.684026724554378,-0.68048528572603,1.51480340860863,3,10,7,1,1
4,14,1,0.5,-0.746210972241139,-0.68048528572603,-0.678839902535422,7,10,3,2,2
4,15,1,0.5,0.470823589628338,1.80476532301251,0.620629915282117,3,12,3,1,1
4,16,1,0.5,0.262062186679924,-0.68048528572603,1.81207952187484,3,10,3,2,1
4,17,1,0.5,0.981622767055308,-0.0591726335413945,1.12303629607841,7,8,7,2,0
4,19,1,0.5,-1.1348625202834,-0.0591726335413945,0.914797181383079,3,12,7,1,2
4,21,1,0.5,1.17927984005966,-0.68048528572603,2.00912532362839,3,10,3,1,0
4,22,1,0.5,-1.33029872729894,-0.0591726335413945,0.191062309244676,7,8,7,2,2
4,23,1,0.5,0.0444173197762583,-0.0591726335413945,0.934046920433211,3,12,7,1,0
4,24,1,0.5,-1.3924829749857,-0.0591726335413945,-0.386889058661957,3,12,7,2,2
5,1,1,0.5,2.16756348179368,-0.395008187929654,1.09978027999968,7,8,7,2,2
5,2,1,0.5,1.08347567432217,-0.395008187929654,-1.37533243033568,3,8,7,1,2
5,3,1,0.5,0.18792487684571,-0.395008187929654,2.71186039463973,7,12,3,2,2
5,4,1,0.5,-0.532555839921067,0.371772412169085,-4.49670339583185,3,12,7,2,2
5,5,1,0.5,1.28547961360258,-0.6506017212959,2.66916181868271,3,10,7,2,1
5,7,1,0.5,0.807403623972285,-0.395008187929654,-0.627923493706402,3,8,3,2,0
5,9,1,0.5,0.120590230418908,-0.395008187929654,-0.0236942174855315,3,8,7,1,1
5,10,1,0.5,-0.956764112409917,-0.6506017212959,-4.89973710018686,7,10,3,1,2
5,11,1,0.5,2.44363553214356,2.6721142124653,8.84881037926541,3,12,3,1,1
5,12,1,0.5,0.369728422198074,2.6721142124653,-0.20780059553656,7,12,3,1,1
5,13,1,0.5,0.107123301133548,-0.395008187929654,0.209581164564273,7,8,3,2,1
5,14,1,0.5,-0.24301686028582,-0.395008187929654,-2.72853893277321,3,12,7,2,0
5,15,1,0.5,-0.357485759211383,-0.395008187929654,-0.499563633200884,7,8,7,2,0
5,16,1,0.5,-1.07123301133548,-0.395008187929654,-0.289692985456502,3,12,3,2,2
5,17,1,0.5,-1.165501516333,-0.6506017212959,-2.50956343574104,3,10,3,1,2
5,18,1,0.5,-0.559489698491788,1.13855301226782,-0.840935438195684,3,10,3,1,0
5,19,1,0.5,-0.344018829926022,-0.6506017212959,-0.845816160056166,7,10,7,2,1
5,20,1,0.5,-0.707625920630751,-0.6506017212959,-2.22126829211251,3,10,7,1,0
5,21,1,0.5,-0.552756233849107,1.13855301226782,-2.62832465321079,7,10,7,1,1
5,22,1,0.5,-0.822094819556314,-0.395008187929654,-1.52581124403629,7,8,7,1,2
5,23,1,0.5,-0.465221193494265,-0.395008187929654,-1.92397399757579,7,12,7,1,0
5,24,1,0.5,-0.795160960985593,-0.395008187929654,-0.317071865023275,7,8,3,2,0
6,1,1,0.5,0.233148016104067,-0.401593372583645,2.02054047146148,3,8,7,2,1
6,2,1,0.5,2.25361710552058,0.912712210417374,0.631015412071207,7,12,3,2,1
6,3,1,0.5,0.111390490191631,0.912712210417374,-0.140445490057071,3,8,7,1,0
6,4,1,0.5,0.813702016469159,-0.401593372583645,0.532286281633122,3,8,7,2,0
6,5,1,0.5,-0.336818373312119,-0.839695233583985,0.894280601148824,7,10,7,2,2
6,6,1,0.5,2.91004898435284,2.22701779341839,1.27791072613462,7,10,3,1,1
6,7,1,0.5,-0.0915387196624291,-0.401593372583645,1.62808657106373,3,8,3,1,2
6,8,1,0.5,0.0690400463960008,-0.401593372583645,-0.0194594045971851,3,8,7,1,2
6,9,1,0.5,0.40784359676104,-0.401593372583645,0.440946136197206,7,12,7,1,0
6,10,1,0.5,-0.66503431272825,-0.839695233583985,0.0694600634671698,7,10,7,1,2
6,11,1,0.5,-0.430342270027468,-0.401593372583645,1.39913159007317,7,12,7,2,0
6,12,1,0.5,-0.864434318932674,-0.839695233583985,-0.971109260127784,3,10,7,2,2
6,13,1,0.5,-0.118007747034698,-0.401593372583645,-0.8164231541937,3,8,3,1,0
6,14,1,0.5,1.42954805333061,-0.839695233583985,1.1754105962559,3,10,3,2,0
6,15,1,0.5,-0.779733431341415,-0.401593372583645,-1.07682144044055,3,12,3,2,1
6,16,1,0.5,0.317848903695326,-0.401593372583645,0.328441534716595,7,8,3,2,2
6,17,1,0.5,-1.05677591783783,0.912712210417374,-1.2540172166646,3,12,7,1,1
6,18,1,0.5,-0.250352883896041,-0.401593372583645,-1.32290356752934,3,12,3,2,2
6,19,1,0.5,-0.966781224772113,2.22701779341839,0.645743548041806,3,10,3,1,1
6,20,1,0.5,-0.91031396637794,2.22701779341839,0.435337341693768,7,10,7,1,1
6,21,1,0.5,-0.403873242655199,-0.839695233583985,1.08687182648444,7,10,3,1,0
6,22,1,0.5,-0.959722817472841,-0.401593372583645,-0.943405233922966,7,12,3,1,2
6,23,1,0.5,-0.423283862728196,-0.401593372583645,2.99937972215959,7,8,7,2,1
6,24,1,0.5,-0.289174124042035,-0.401593372583645,3.65849567689274,7,12,3,2,0
7,1,1,0.5,1.46706724705617,-0.290957186981324,1.57956232816893,7,8,7,2,2
7,2,1,0.5,3.76560498367291,-0.290957186981324,3.15385178929761,3,8,7,1,2
7,3,1,0.5,0.939971510647681,-0.290957186981324,1.51093803358827,7,12,3,2,2
7,4,1,0.5,0.085942975707351,-0.290957186981324,0.278740574104495,3,12,7,2,2
7,6,1,0.5,-0.254334018682937,-0.290957186981324,-0.51475209361032,7,8,3,1,0
7,7,1,0.5,-0.457833005524187,-0.290957186981324,2.55613843523579,3,8,3,2,0
7,8,1,0.5,-0.368871699801236,-0.290957186981324,1.36865314838367,3,8,3,2,1
7,9,1,0.5,0.065926681919687,-0.290957186981324,-1.40283118095065,3,8,7,1,1
7,10,1,0.5,-0.331063144868982,2.76409327632257,0.0147263955022262,7,10,3,1,2
7,12,1,0.5,-0.00524236265867385,1.23656804467062,1.60248626751708,7,12,3,1,1
7,13,1,0.5,-0.510097772636421,-0.290957186981324,0.966942978784184,7,8,3,2,1
7,14,1,0.5,-0.472289217704167,-0.290957186981324,1.7224797836488,3,12,7,2,0
7,15,1,0.5,-0.541234229639454,-0.290957186981324,-1.86557932716126,7,8,7,2,0
7,16,1,0.5,-0.531226082745622,-0.290957186981324,-0.210438037442723,3,12,3,2,2
7,17,1,0.5,-0.294366606258265,-0.800132264198639,0.691822793884914,3,10,3,1,2
7,19,1,0.5,-0.425584532199618,-0.800132264198639,2.67018252952758,7,10,7,2,1
7,20,1,0.5,-0.446712842308818,-0.800132264198639,0.892799281510309,3,10,7,1,0
7,21,1,0.5,-0.430032597485765,2.76409327632257,-1.19480903108117,7,10,7,1,1
7,22,1,0.5,-0.401120173125806,-0.290957186981324,-0.515903532084389,7,8,7,1,2
7,23,1,0.5,-0.516769870565642,-0.290957186981324,3.33135549170453,7,12,7,1,0
7,24,1,0.5,-0.337735242798203,-0.290957186981324,0.460630847869846,7,8,3,2,0
8,1,1,0.5,1.74430280251217,-0.81401415689105,0.950957416732751,3,10,7,1,1
8,2,1,0.5,1.95922110775353,-0.222003860970287,-0.273424442666654,3,8,3,2,0
8,3,1,0.5,1.11011763950489,-0.81401415689105,10.0221107769825,7,10,3,2,2
8,4,1,0.5,1.51881474455403,-0.81401415689105,-0.412877616022286,7,10,3,2,0
8,5,1,0.5,0.070758622354054,-0.222003860970287,-0.262863997085464,3,8,3,1,1
8,6,1,0.5,-0.0490319084362115,1.554027026792,-2.14802950547622,7,12,7,2,0
8,7,1,0.5,1.08193163226012,-0.222003860970287,-0.145320438415172,7,8,7,1,1
8,8,1,0.5,1.17353615580562,-0.222003860970287,-1.13994329189426,3,8,3,2,2
8,9,1,0.5,-1.06020491834228,-0.222003860970287,-2.83213498941675,3,8,7,1,2
8,10,1,0.5,-0.817100605856149,-0.222003860970287,-1.3113881058187,7,8,3,1,0
8,11,1,0.5,-0.891088874873666,-0.222003860970287,-0.85116096983278,3,8,7,1,0
8,12,1,0.5,0.204642156766704,-0.222003860970287,3.17975376659364,7,8,7,1,0
8,13,1,0.5,-0.426019755334988,-0.222003860970287,-2.32801420132536,7,8,3,1,1
8,14,1,0.5,-0.820623856761745,-0.222003860970287,-0.373736428115962,3,12,7,2,2
8,15,1,0.5,-0.915751631212838,-0.81401415689105,0.706405876520064,3,10,7,2,1
8,16,1,0.5,0.704943785361342,-0.222003860970287,3.06079296570271,7,12,7,2,2
8,17,1,0.5,0.641525269060613,3.3300579145543,4.74694125010607,7,10,7,2,1
8,18,1,0.5,-0.993263151135951,1.554027026792,0.0106182072944228,3,12,3,1,2
8,19,1,0.5,-0.140636431981709,-0.222003860970287,0.0940791567927006,7,12,3,2,1
8,20,1,0.5,-1.05315841653108,-0.222003860970287,0.448824221796707,3,12,3,1,0
8,21,1,0.5,-0.898135376684858,1.554027026792,-0.36173144552847,7,8,7,1,2
8,22,1,0.5,-0.947460889363202,-0.81401415689105,0.0137689240722616,3,10,3,2,1
8,23,1,0.5,-0.95803064207999,-0.81401415689105,-2.68399303065206,7,10,3,1,2
8,24,1,0.5,-0.239287457338398,-0.222003860970287,-0.914467204436434,3,12,7,2,0
9,1,1,0.5,0.260359713264582,-0.375540841706121,0.451905569018876,7,8,7,1,0
9,2,1,0.5,0.872162075787297,0.706016782407506,-0.345421061384891,3,8,7,1,2
9,3,1,0.5,0.0506971058832025,0.706016782407506,-0.702233471570856,3,12,3,2,2
9,4,1,0.5,0.229425885946018,-0.375540841706121,0.210369130411536,7,12,3,2,2
9,5,1,0.5,0.555949618753085,-0.375540841706121,1.03494184534334,7,8,3,1,1
9,6,1,0.5,-0.45455540698668,-0.375540841706121,0.0276058736005062,7,8,7,1,2
9,7,1,0.5,0.188180782854599,-0.736060049743996,-3.66136018666657,7,10,7,2,1
9,8,1,0.5,3.27468933086245,-0.375540841706121,1.04932304416863,3,8,7,2,2
9,9,1,0.5,0.0575712897317723,3.95068965474839,-1.40835444744555,3,12,7,1,1
9,10,1,0.5,-0.433932855440971,0.706016782407506,-1.0360665690556,7,12,3,1,0
9,11,1,0.5,1.06463922354725,-0.736060049743996,0.869096832791601,3,10,3,2,0
9,12,1,0.5,-0.884191897522294,-0.375540841706121,-2.25324020127902,7,8,7,1,1
9,13,1,0.5,-0.976993379477987,0.706016782407506,-0.276072882851615,3,12,3,1,1
9,14,1,0.5,0.896221719257292,-0.375540841706121,0.250968389668804,3,8,3,1,0
9,15,1,0.5,-0.578290716260937,0.706016782407506,-0.465861850691484,7,8,3,2,1
9,16,1,0.5,-0.949496644083708,-0.375540841706121,-0.483771142712999,3,12,3,2,1
9,17,1,0.5,-0.743271128626613,-0.736060049743996,0.548829976474647,7,10,3,2,0
9,18,1,0.5,-0.935748276386568,0.706016782407506,0.355354624965908,3,12,7,1,0
9,19,1,0.5,0.384095022538839,-0.736060049743996,-1.37318192103301,3,10,7,2,0
9,20,1,0.5,1.22618254398864,-0.375540841706121,0.341894678519845,3,12,3,1,2
9,21,1,0.5,-0.616098727428071,-0.375540841706121,-2.54257898742185,3,8,7,2,1
9,22,1,0.5,-0.66421801436806,-0.375540841706121,0.424394471657936,7,8,7,2,2
9,23,1,0.5,-1.21071563032936,-0.375540841706121,-1.37352070681735,7,8,3,1,2
9,24,1,0.5,-0.612661635503786,-0.736060049743996,-1.13888582016785,7,10,7,2,0
10,1,1,0.5,0.296138490004323,-0.435642635968827,-0.0262523055610408,7,12,3,1,2
10,2,1,0.5,-0.863279046458227,-0.91088914793482,-0.774056883620113,7,10,3,1,0
10,3,1,0.5,-0.850710834680855,0.990096899929152,-1.08730999505801,7,12,7,1,1
10,4,1,0.5,0.726599743379308,-0.435642635968827,0.705707333297394,7,8,7,2,2
10,5,1,0.5,-0.0212088573743149,-0.435642635968827,0.340591717149005,7,12,7,2,1
10,6,1,0.5,1.78232953267854,0.990096899929152,-0.76956511123325,7,12,7,1,2
10,7,1,0.5,0.113899419232432,0.990096899929152,0.290654600004442,3,8,3,1,0
10,8,1,0.5,0.393542131278955,-0.91088914793482,-0.337339273639318,3,10,7,1,2
10,9,1,0.5,-0.341698257697296,2.41583643582713,0.541756607141015,3,10,3,2,0
10,10,1,0.5,-0.401397263639812,-0.91088914793482,-0.489543330341336,7,10,3,2,0
10,11,1,0.5,-0.0777658103724881,0.990096899929152,-0.567579108723456,7,8,7,2,0
10,12,1,0.5,0.73916795515668,-0.435642635968827,1.37316602922299,3,12,7,2,2
10,13,1,0.5,-0.674755869797649,-0.91088914793482,0.0582213196192876,7,10,3,1,1
10,14,1,0.5,-0.995245270120631,-0.435642635968827,0.855071836195067,3,8,7,2,1
10,15,1,0.5,2.75008183953617,-0.91088914793482,0.327383435101809,7,10,7,1,0
10,16,1,0.5,0.54750272555176,-0.435642635968827,-0.679677954096534,3,12,3,2,2
10,17,1,0.5,0.849139808208683,-0.435642635968827,0.602290555179648,3,8,3,2,1
10,18,1,0.5,-0.847568781736512,-0.435642635968827,-0.407114289422849,3,12,3,1,2
10,19,1,0.5,-1.33772904105401,0.990096899929152,-1.74741731188427,3,12,7,1,1
10,20,1,0.5,0.054200413289916,2.41583643582713,0.123825531508233,3,10,7,2,0
10,21,1,0.5,-1.3440131469427,-0.435642635968827,-0.410618224298393,7,12,3,2,1
10,22,1,0.5,1.07536762020138,-0.435642635968827,-0.101305117827281,3,8,7,1,0
10,23,1,0.5,-0.800437987571368,-0.435642635968827,0.879314516817227,3,8,3,1,1
10,24,1,0.5,-0.772159511072281,-0.435642635968827,-0.15892925220326,7,8,3,2,2
12,1,1,0.5,1.63379658227562,-0.0687084700658151,3.83321846939543,7,8,7,2,2
12,2,1,0.5,1.03887795843342,-0.0687084700658151,1.22063956907865,3,8,7,1,2
12,3,1,0.5,0.997957629809359,-0.0687084700658151,-0.225528164489888,7,12,3,2,2
12,4,1,0.5,1.58343310089215,-0.0687084700658151,1.02473081287008,3,12,7,2,2
12,5,1,0.5,-0.558588716698391,-0.893210110855586,-0.351811842981812,3,10,7,2,1
12,6,1,0.5,0.946020289632659,-0.0687084700658151,1.79323197691502,7,8,3,1,0
12,7,1,0.5,1.61018870037712,-0.0687084700658151,0.470264221376317,3,8,3,2,0
12,8,1,0.5,0.340084654237832,-0.0687084700658151,-0.462530067335289,3,8,3,2,1
12,9,1,0.5,0.333789219064899,-0.0687084700658151,1.80138002350244,3,8,7,1,1
12,10,1,0.5,0.920838548940926,-0.893210110855586,1.06212874904067,7,10,3,1,2
12,11,1,0.5,0.90352610221536,2.4047964523035,2.10985734122866,3,12,3,1,1
12,12,1,0.5,-0.234373805292328,2.4047964523035,1.61846690871261,7,12,3,1,1
12,13,1,0.5,-1.11416087070975,-0.0687084700658151,0.0428699162908838,7,8,3,2,1
12,14,1,0.5,-0.324083756506627,-0.0687084700658151,-1.82283770826957,3,12,7,2,0
12,15,1,0.5,-0.621543068427724,-0.0687084700658151,16.4194827429563,7,8,7,2,0
12,16,1,0.5,0.417203735106265,-0.0687084700658151,-0.502077414834929,3,12,3,2,2
12,17,1,0.5,-0.659315679465324,-0.893210110855586,-0.191129904269763,3,10,3,1,2
12,18,1,0.5,-0.846604875860088,-0.893210110855586,-2.74469022705243,3,10,3,1,0
12,19,1,0.5,-1.26997289123985,-0.893210110855586,1.11511084698645,7,10,7,2,1
12,20,1,0.5,-1.03074635466839,-0.893210110855586,-2.12505379980502,3,10,7,1,0
12,21,1,0.5,-0.819849276375122,-0.893210110855586,-2.20503180930542,7,10,7,1,1
12,22,1,0.5,-0.936314827074387,-0.0687084700658151,-0.358463063730667,7,8,7,1,2
12,23,1,0.5,-0.99454760242402,2.4047964523035,0.0298321907622268,7,12,7,1,0
12,24,1,0.5,-1.31561479624362,-0.0687084700658151,-0.16538336886008,7,8,3,2,0
13,1,1,0.5,0.786978041941942,3.07487454701057,0.881036951894514,7,10,7,1,1
13,2,1,0.5,0.495618884396345,-0.229468249776909,-0.288107644428243,3,8,3,1,1
13,3,1,0.5,-0.376146213974209,1.42270314861683,0.0697444960323764,3,12,7,1,0
13,4,1,0.5,0.958093737643324,-0.229468249776909,1.39985887503083,3,8,7,2,1
13,5,1,0.5,1.40669434529289,-0.229468249776909,1.42907318930859,7,12,3,1,2
13,6,1,0.5,0.810101784604291,-0.780192049241489,0.354714443391832,7,10,3,2,2
13,7,1,0.5,1.27951376064997,-0.780192049241489,-0.978500936627643,3,10,3,2,2
13,8,1,0.5,1.39744484822795,1.42270314861683,0.91938472421066,7,12,3,1,1
13,9,1,0.5,0.49793125866258,1.42270314861683,1.88131657972264,3,12,7,2,2
13,10,1,0.5,0.523367375591164,-0.780192049241489,9.2684451614465,3,10,7,2,0
13,11,1,0.5,0.375375422552131,-0.229468249776909,0.386482886830414,7,12,3,1,0
13,12,1,0.5,1.19164353853305,-0.229468249776909,0.982807561570512,7,12,7,2,2
13,13,1,0.5,0.363813551220956,-0.229468249776909,0.719850504631222,3,8,3,2,0
13,14,1,0.5,-0.850182938552362,-0.780192049241489,-1.22338820735883,3,10,3,2,1
13,15,1,0.5,-1.11379360490314,-0.229468249776909,-0.555231284184315,3,8,3,1,2
13,16,1,0.5,0.449371399071647,-0.780192049241489,0.667075126202118,7,10,7,1,2
13,17,1,0.5,0.0886410135390041,-0.229468249776909,0.958908635186764,7,12,3,2,1
13,18,1,0.5,-1.7011366685268,-0.780192049241489,-0.429976305676038,3,10,3,1,0
13,19,1,0.5,-0.998174891591396,-0.229468249776909,0.125123040899302,7,8,7,1,0
13,20,1,0.5,-0.713752856844504,1.42270314861683,0.304163802165068,3,12,7,1,1
13,21,1,0.5,-1.05367187398103,-0.780192049241489,-0.11376172543352,3,10,7,1,2
13,22,1,0.5,-1.33809390872792,-0.229468249776909,-1.35297991537859,7,12,7,2,1
13,23,1,0.5,-1.4490878735072,-0.780192049241489,-0.737901233841749,7,10,7,2,0
13,24,1,0.5,-1.03054813131868,-0.229468249776909,0.0059462119021497,7,8,3,2,0
14,2,1,0.5,-0.315219554572394,-0.268182305786454,-1.14772123153821,3,8,7,1,2
14,3,1,0.5,1.56452084710522,1.50182091240414,6.93245718005115,7,12,7,2,2
14,4,1,0.5,0.895953384652873,-0.858183378516652,0.15710397728951,7,10,3,1,1
14,10,1,0.5,-0.765083789141779,1.50182091240414,3.33887521700655,3,12,3,1,2
14,11,1,0.5,-0.994860598183372,-0.268182305786454,2.37919940058733,7,8,7,2,1
14,16,1,0.5,-0.456407714344939,-0.268182305786454,6.29632258004603,7,12,7,1,1
14,17,1,0.5,-0.665421558714099,-0.858183378516652,0.428812519818504,7,10,7,2,0
14,19,1,0.5,0.513914834680103,-0.268182305786454,1.86066693634404,7,8,3,2,2
14,20,1,0.5,-0.986555412314399,1.50182091240414,4.66741016180614,3,12,3,1,1
14,22,1,0.5,1.71262999510191,-0.858183378516652,0.131506813599922,7,10,3,1,0
14,24,1,0.5,-0.503470434269121,-0.858183378516652,3.52758192219074,7,10,7,1,2
15,1,1,0.5,1.08278858340077,-0.715491385636572,-1.50791103787816,3,8,7,2,2
15,2,1,0.5,0.64626485667867,0.946295058422562,1.12486628482773,3,10,7,1,0
15,3,1,0.5,2.21932333135292,0.115401836392995,1.84245873366993,3,12,3,2,0
15,4,1,0.5,1.31874735460191,0.115401836392995,-1.04260012728907,3,12,3,1,0
15,5,1,0.5,0.249067591823422,0.115401836392995,0.466594547387599,7,12,7,1,1
15,6,1,0.5,2.44741681018068,-0.99245579297976,2.67370991284497,3,10,3,1,2
15,7,1,0.5,-0.671171615861012,-0.715491385636572,1.01574106046954,7,8,3,1,0
15,8,1,0.5,-0.710498077727868,2.6080815024817,0.56623057270077,3,12,7,1,1
15,9,1,0.5,1.01593359822712,-0.715491385636572,-1.4299222776555,3,8,7,1,2
15,10,1,0.5,-0.226782596765537,0.946295058422562,-0.579962620314827,7,10,3,2,0
15,11,1,0.5,0.103559682916055,-0.715491385636572,-0.384654744864948,3,8,7,2,0
15,12,1,0.5,0.426036670224275,-0.715491385636572,-0.740937609836289,7,8,3,1,2
15,13,1,0.5,-0.0340829336179419,-0.715491385636572,0.865931638227215,7,8,7,1,2
15,14,1,0.5,-0.970052726049118,0.115401836392995,-2.12568471735615,3,12,3,2,2
15,15,1,0.5,-1.1116279887698,0.115401836392995,-3.71434863285947,7,12,3,2,2
15,16,1,0.5,-0.66330632348764,0.115401836392995,1.48580516929878,3,12,7,2,1
15,17,1,0.5,-0.541394291700386,2.6080815024817,-2.18641862219331,3,12,3,1,1
15,18,1,0.5,-1.02117712647603,0.115401836392995,-2.92966073496671,7,12,7,2,2
15,19,1,0.5,-0.266109058632393,-0.715491385636572,1.59898951199324,7,8,7,2,0
15,20,1,0.5,-0.596451338313985,-0.715491385636572,-1.40114070249439,7,8,3,2,1
15,21,1,0.5,-0.616114569247413,-0.715491385636572,1.05728659322206,3,8,3,2,1
15,22,1,0.5,-0.293637581939192,0.946295058422562,-0.689278012962899,7,10,7,2,1
15,23,1,0.5,-0.793083647648266,-0.715491385636572,-2.00208400187791,7,8,3,1,1
15,24,1,0.5,-0.993648603169232,-0.715491385636572,-2.82762792775963,7,8,7,1,0
16,1,1,0.5,-0.0767076766725516,-0.300796416641907,2.43292326978625,3,12,7,2,2
16,2,1,0.5,-0.0369333258053026,-0.300796416641907,-0.0521817658196074,3,8,7,1,2
16,3,1,0.5,1.44202314929934,-0.300796416641907,1.58202814520731,7,12,7,2,2
16,4,1,0.5,-0.737448933936647,1.76180758318831,1.8515088009147,7,10,3,1,1
16,5,1,0.5,-0.0734607908874701,-0.300796416641907,0.570089936064538,3,12,3,2,1
16,6,1,0.5,0.620561045673711,-0.300796416641907,0.432137168446035,7,8,3,2,1
16,7,1,0.5,-0.0109582395246502,-0.300796416641907,0.826530970185347,7,8,3,2,0
16,8,1,0.5,-0.339705425264157,-0.644563749946943,-0.504184943430215,3,10,7,2,1
16,9,1,0.5,-0.334023375140264,-0.300796416641907,-0.907673599905132,3,8,3,1,0
16,10,1,0.5,-1.01181078277604,0.730505583273202,0.176904928132698,3,12,3,1,2
16,11,1,0.5,2.18961860131437,-0.300796416641907,1.20541914054233,7,8,7,2,1
16,12,1,0.5,-0.677381546912638,-0.644563749946943,1.09405330695663,7,10,3,1,2
16,13,1,0.5,0.749624755630703,-0.300796416641907,2.35967792855534,3,8,7,2,0
16,14,1,0.5,-0.898981501744454,0.730505583273202,-1.02395918299908,3,12,3,2,2
16,15,1,0.5,-0.22038237266241,-0.644563749946943,0.834683730696773,3,10,7,1,0
16,16,1,0.5,0.573481201790029,3.82441158301853,0.242082482433101,7,12,7,1,1
16,17,1,0.5,0.221194094108681,-0.644563749946943,1.30623722012329,7,10,7,2,0
16,18,1,0.5,-0.839725836166716,-0.300796416641907,3.13465181260384,7,12,7,1,0
16,19,1,0.5,-0.0702139051023885,-0.300796416641907,0.58057442529699,7,8,3,2,2
16,20,1,0.5,-0.574292923236299,0.730505583273202,0.749640764012195,3,12,3,1,1
16,21,1,0.5,2.82925510097544,-0.300796416641907,1.47304819549595,3,12,3,2,0
16,22,1,0.5,-0.585657023484085,-0.644563749946943,0.420522159236927,7,10,3,1,0
16,23,1,0.5,-1.0183045543462,-0.300796416641907,0.190022317696368,3,8,7,1,1
16,24,1,0.5,-1.11976973513,-0.644563749946943,0.543583991984825,7,10,7,1,2
17,1,1,0.5,1.15396500324483,-0.25993450567827,2.10809444978349,3,8,7,2,1
17,2,1,0.5,2.26490879391686,1.07687152352426,1.70756652531917,7,12,7,2,1
17,3,1,0.5,0.419764882326164,-0.25993450567827,1.52844873127554,3,8,3,2,2
17,4,1,0.5,1.66186175939697,-0.25993450567827,1.22407675190861,7,8,7,1,1
17,5,1,0.5,-0.633317252581696,-0.705536515412446,0.23045220416947,7,10,3,1,2
17,6,1,0.5,0.574062631030612,2.41367755272679,-0.0687914317968371,7,10,3,1,1
17,7,1,0.5,-0.818474551027034,-0.705536515412446,-1.29103478889079,3,10,3,1,2
17,8,1,0.5,-0.94705600828074,-0.705536515412446,0.488452983170068,3,10,7,2,0
17,9,1,0.5,-1.19264659163532,-0.25993450567827,-0.839531330609124,7,8,3,2,0
17,10,1,0.5,1.63228802422862,-0.25993450567827,1.69402560854656,7,8,3,2,1
17,11,1,0.5,-0.875050392218665,-0.705536515412446,1.44573653011258,3,10,3,2,0
17,12,1,0.5,-0.68860727920079,-0.25993450567827,-0.259455305780802,7,8,7,1,2
17,13,1,0.5,0.620351955641947,-0.705536515412446,0.833085477921455,3,10,7,1,1
17,14,1,0.5,-0.76318452440794,-0.705536515412446,0.631331847405847,7,10,3,2,2
17,15,1,0.5,-0.148565158735221,-0.25993450567827,-0.493396917871907,3,12,3,1,1
17,16,1,0.5,-0.692464722918401,-0.705536515412446,-0.754484992233858,3,10,3,2,1
17,17,1,0.5,-0.00583974118360595,-0.25993450567827,0.220389580437862,7,8,7,2,0
17,18,1,0.5,-0.299005463722058,2.41367755272679,0.094325315825619,7,10,3,1,0
17,19,1,0.5,1.0523856520144,-0.25993450567827,0.580964899750633,3,12,7,1,2
17,20,1,0.5,-0.439159252128598,-0.25993450567827,1.0832613979451,7,8,7,1,0
17,21,1,0.5,-0.884051094226424,2.41367755272679,0.0388933413732089,3,10,3,1,0
17,22,1,0.5,0.826082287247878,-0.25993450567827,-0.141063465163748,7,8,7,2,2
17,23,1,0.5,-0.929054604265221,-0.25993450567827,-0.258234804021151,3,12,7,1,0
17,24,1,0.5,-0.889194352516572,-0.25993450567827,-0.766884058036145,3,12,7,2,2
18,1,1,0.5,2.06919839577808,0.295163026345123,1.45958502913755,7,12,3,1,1
18,2,1,0.5,0.199849867580136,-0.885489079035371,-0.170212156896556,3,10,7,1,1
18,3,1,0.5,-0.0765580771875939,-0.885489079035371,0.0426773976885429,7,10,3,2,2
18,4,1,0.5,1.84232019833867,0.295163026345123,1.27107917531298,3,8,7,1,2
18,5,1,0.5,0.599283313776277,3.83711934248661,1.89144624621471,3,12,3,1,1
18,6,1,0.5,0.985934889694142,0.295163026345123,1.16228352604739,3,12,3,2,0
18,7,1,0.5,0.0256968850386183,0.295163026345123,2.64307652361446,7,8,7,1,1
18,8,1,0.5,-0.599017024812147,0.295163026345123,2.06542404463043,7,12,3,1,2
18,9,1,0.5,-0.848263495238539,0.295163026345123,0.176835603436031,3,8,3,1,0
18,10,1,0.5,-0.490371127446796,-0.885489079035371,3.43258620905682,7,10,3,2,1
18,11,1,0.5,-0.298643073272648,-0.885489079035371,3.40975433799017,3,10,7,2,1
18,12,1,0.5,0.695147340863351,0.295163026345123,-0.779923209619934,7,8,3,2,0
18,13,1,0.5,0.01930594989948,-0.885489079035371,1.31387366953744,3,10,3,2,2
18,14,1,0.5,0.271747887895441,-0.885489079035371,0.591468368276983,7,10,7,2,1
18,15,1,0.5,-1.00004820479307,0.295163026345123,0.392899226497571,7,12,7,2,0
18,16,1,0.5,-1.03999154941269,-0.885489079035371,1.40415103037024,3,10,3,2,1
18,17,1,0.5,2.36477914596322,-0.885489079035371,1.78852839799996,7,10,7,2,2
18,18,1,0.5,-0.229940520526912,0.295163026345123,1.01128166140072,3,12,7,2,2
18,19,1,0.5,-0.522325803142488,0.295163026345123,3.57538183755685,7,8,7,1,0
18,20,1,0.5,-0.43924364633369,0.295163026345123,-0.111457404084161,3,8,3,1,2
18,21,1,0.5,-1.18858079139765,0.295163026345123,0.285096973005793,3,8,7,1,0
18,22,1,0.5,-1.193373992752,0.295163026345123,0.429803703300958,3,8,7,2,0
18,23,1,0.5,-0.189997175907298,0.295163026345123,0.0945739149482733,7,8,3,1,0
18,24,1,0.5,-0.956909392603889,-0.885489079035371,-0.79034454860858,7,10,7,1,2
19,1,1,0.5,1.06182546496613,-0.978945010372561,1.84670593660276,3,10,7,2,2
19,2,1,0.5,-0.215589337084942,1.6315750172876,-0.14159057402455,7,12,7,2,0
19,3,1,0.5,2.63505186781269,-0.326315003457521,0.741683819727596,7,12,7,2,1
19,4,1,0.5,2.63300472870684,-0.326315003457521,0.167282176125468,3,12,3,2,0
19,5,1,0.5,-0.370148339576699,1.6315750172876,-0.762518234837266,3,12,7,1,1
19,6,1,0.5,0.0239259382996345,-0.326315003457521,0.767911685148899,3,12,3,1,0
19,7,1,0.5,0.334067512836073,-0.326315003457521,-0.0720274126062901,7,8,3,1,1
19,8,1,0.5,-0.673124927242658,1.6315750172876,0.554465451384288,7,12,3,1,0
19,9,1,0.5,-0.332276266118454,-0.978945010372561,4.89897762231023,3,10,3,2,2
19,10,1,0.5,-0.217636476190793,-0.978945010372561,3.91714926573366,7,10,3,2,2
19,11,1,0.5,1.39755627832571,-0.326315003457521,0.931864940567125,7,8,7,1,2
19,12,1,0.5,0.455872289634213,-0.326315003457521,0.960729389954688,7,12,3,1,2
19,13,1,0.5,-0.0241818306878659,-0.326315003457521,0.641564014909018,3,8,3,1,2
19,14,1,0.5,-0.201259363343984,-0.326315003457521,6.82199609718671,3,8,3,1,1
19,15,1,0.5,-0.686431331430691,1.6315750172876,0.457684332850395,3,12,7,1,0
19,16,1,0.5,-0.707926292042127,-0.326315003457521,0.226976056350333,7,8,3,2,1
19,17,1,0.5,-0.729421252653563,-0.978945010372561,-0.870504975997503,7,10,7,1,0
19,18,1,0.5,-0.517542355197976,-0.326315003457521,-1.32779627737289,3,12,7,2,1
19,19,1,0.5,-0.954606554297182,1.6315750172876,5.63833859967498,7,12,7,1,1
19,20,1,0.5,-0.0159932742644616,-0.978945010372561,0.778524754895542,7,10,7,2,2
19,21,1,0.5,-0.869650281404362,-0.326315003457521,0.12673960809544,7,12,3,2,0
19,22,1,0.5,-0.54415516357404,-0.326315003457521,-0.269579182386663,3,12,7,2,0
19,23,1,0.5,-0.575885819714732,1.6315750172876,-0.733508600305271,3,12,7,1,2
19,24,1,0.5,-0.905475215756756,-0.978945010372561,4.11671086811651,3,10,3,2,1
20,1,1,0.5,0.0920476412209141,-0.599979131523567,-0.755202966592866,7,10,3,1,2
20,2,1,0.5,1.42930688743486,-0.279990261377665,2.6732577121794,3,12,3,1,2
20,3,1,0.5,-0.670989819035713,-0.279990261377665,0.583239926924293,3,12,3,2,0
20,4,1,0.5,0.589632477021451,-0.599979131523567,2.66758709002217,3,10,7,1,2
20,5,1,0.5,0.771784068698434,1.63994295949775,1.28032242024763,7,10,3,1,0
20,6,1,0.5,0.582968394399123,-0.599979131523567,1.95299194820101,3,10,7,1,1
20,7,1,0.5,0.0187427323752992,1.63994295949775,1.31693953532938,3,10,7,1,0
20,8,1,0.5,1.27270094581013,0.679976349060042,0.671759091645506,7,12,3,1,1
20,9,1,0.5,0.30529828513543,-0.599979131523567,4.82731529453539,3,10,3,1,1
20,10,1,0.5,2.72991367922599,-0.279990261377665,3.36147243655862,3,12,3,2,2
20,11,1,0.5,-0.673211179909823,-0.279990261377665,-0.122791272297398,3,8,3,1,0
20,12,1,0.5,0.100933084717352,-0.279990261377665,-1.3424819415664,3,8,3,2,1
20,13,1,0.5,0.648498540185354,-0.599979131523567,0.262975292899077,7,10,7,1,0
20,14,1,0.5,0.485228515938303,-0.279990261377665,0.273603683832677,3,8,7,2,1
20,15,1,0.5,0.785112233943091,-0.599979131523567,0.665814916958174,7,10,3,2,1
20,16,1,0.5,-1.04639980676023,3.55987618037316,-2.37559531236741,7,12,7,1,1
20,17,1,0.5,-1.11637267429468,0.679976349060042,-3.49904860687464,7,12,7,2,1
20,18,1,0.5,-0.887572504261393,-0.279990261377665,-0.965900413154959,7,12,3,2,2
20,19,1,0.5,-0.812046234541669,-0.279990261377665,-3.8559840890006,7,12,7,1,2
20,20,1,0.5,-1.06639205462721,-0.279990261377665,-1.67797965912069,7,12,3,2,0
20,21,1,0.5,-1.04862116763433,-0.599979131523567,3.81753831643636,7,10,7,2,2
20,22,1,0.5,-1.15635717002865,-0.279990261377665,-6.74491009411817,3,8,7,2,0
20,23,1,0.5,-0.492170268669895,-0.599979131523567,0.0975134887185924,3,10,7,2,2
20,24,1,0.5,-0.842034606342148,-0.599979131523567,-0.338398295018653,7,10,7,2,0
21,1,1,0.5,1.48226186016653,-0.435494170355693,-1.12174123016358,3,12,7,2,2
21,2,1,0.5,1.35116110599867,-0.435494170355693,-0.420237700030582,3,8,7,1,2
21,3,1,0.5,0.593690081917666,-0.435494170355693,-1.72568974397853,7,12,7,2,2
21,4,1,0.5,1.70367646720559,2.17747085177846,1.60405365548472,7,10,3,1,1
21,5,1,0.5,1.64249611526059,-0.435494170355693,1.14224800622601,3,12,3,2,1
21,6,1,0.5,1.73280996813178,-0.435494170355693,-1.58724495557112,7,8,3,2,1
21,7,1,0.5,-0.830938113373136,-0.435494170355693,-3.25997850904839,7,8,3,2,0
21,8,1,0.5,-0.868811664577186,2.17747085177846,-3.61668276654725,3,10,7,2,1
21,9,1,0.5,0.748097636826485,-0.435494170355693,-2.16301159202311,3,8,3,1,0
21,10,1,0.5,-0.0122867373471331,-0.435494170355693,-1.92330825684787,3,12,3,1,2
21,11,1,0.5,0.0314135140421553,-0.435494170355693,-0.234859224263725,7,8,7,2,1
21,12,1,0.5,-0.428895800591682,-0.870988340711385,1.55047607656761,7,10,3,1,2
21,13,1,0.5,-0.297795046423817,-0.435494170355693,2.64193410780333,3,8,7,2,0
21,14,1,0.5,-0.70275070929789,-0.435494170355693,-4.23295117487196,3,12,3,2,2
21,15,1,0.5,-0.679443908556936,-0.870988340711385,3.34905364788695,3,10,7,1,0
21,16,1,0.5,-0.423069100406444,0.870988340711385,-5.69437155392408,7,12,7,1,1
21,17,1,0.5,-0.676530558464317,-0.870988340711385,4.08642308303028,7,10,7,2,0
21,18,1,0.5,0.520856329602185,-0.435494170355693,-0.695685888953134,7,12,7,1,0
21,19,1,0.5,-1.04943937031958,0.870988340711385,-0.382041899698599,7,8,3,2,2
21,21,1,0.5,-1.08148622133839,0.870988340711385,0.459231124729743,3,12,3,2,0
21,22,1,0.5,-1.11061972226458,2.17747085177846,-2.19606130661667,7,10,3,1,0
21,23,1,0.5,-0.714404109668367,-0.435494170355693,-3.03714053033416,3,8,7,1,1
21,24,1,0.5,-0.929992016522189,-0.870988340711385,1.14529074089826,7,10,7,1,2
22,1,1,0.5,0.0951742196796061,-0.419322312840655,4.50983406572689,7,8,7,1,1
22,2,1,0.5,0.408982923028798,1.0273396664596,0.115233569960571,3,12,7,2,2
22,3,1,0.5,3.29831915508538,1.0273396664596,1.71576205615109,3,12,3,1,0
22,4,1,0.5,-0.28751932099014,-0.419322312840655,-0.110415569645773,3,8,3,1,2
22,5,1,0.5,0.183193734033648,-0.419322312840655,2.78134946522129,7,12,3,1,1
22,6,1,0.5,-0.670212861659885,-0.419322312840655,0.0643570412610356,7,8,7,2,2
22,7,1,0.5,0.711310820157897,-0.901542972607407,1.26503098124761,7,10,3,2,0
22,8,1,0.5,-0.773540117640717,-0.419322312840655,-0.900415880955962,7,12,3,2,1
22,9,1,0.5,-0.624289636779516,1.0273396664596,-2.58151966294376,7,12,7,1,2
22,10,1,0.5,1.23560097087545,2.47400164575986,0.960493702835334,3,10,3,1,1
22,11,1,0.5,0.0377701885791443,-0.419322312840655,-1.52838632419714,7,8,3,1,0
22,12,1,0.5,-0.0502493257748972,-0.901542972607407,0.268086166727538,3,10,3,2,0
22,13,1,0.5,0.477867760349352,-0.419322312840655,-1.70967732026759,7,8,7,1,0
22,14,1,0.5,-1.19067607697074,-0.419322312840655,-2.25950984309319,3,8,3,2,2
22,15,1,0.5,1.12844677948792,-0.419322312840655,0.352912509691015,3,12,7,2,0
22,16,1,0.5,-0.448250608071433,2.47400164575986,-0.518524631683415,7,10,7,2,1
22,17,1,0.5,-1.08734882098991,-0.419322312840655,-6.49003726023629,7,8,3,1,2
22,18,1,0.5,0.864388236425795,1.0273396664596,0.674932953763039,3,12,3,2,1
22,19,1,0.5,-0.635770442999608,-0.901542972607407,-0.0592637788568863,3,10,7,1,2
22,21,1,0.5,-0.727616892760347,-0.901542972607407,0.204494819599185,7,10,7,2,0
22,22,1,0.5,-0.90365592146843,-0.419322312840655,-2.42859175231,7,8,3,2,2
22,23,1,0.5,-0.597501088932634,-0.419322312840655,-1.76976321288075,3,12,7,2,1
22,24,1,0.5,-0.444423672664735,-0.419322312840655,0.753437631522133,3,8,7,1,1
1,1,1,1,2.28434771725881,-0.255609437163093,0.473498425135735,7,8,3,1,0
1,3,1,1,-0.171026510066587,-0.843511142638205,-0.306104446527797,3,10,3,1,1
1,4,1,1,1.60070853734751,1.50809567926225,6.32395528374273,3,12,3,1,2
1,5,1,1,-0.385782273389508,-0.255609437163093,1.80360965008553,7,12,3,1,2
1,6,1,1,0.0186744142019933,-0.255609437163093,2.18558399468479,7,12,3,2,0
1,7,1,1,-0.0672278911271752,-0.255609437163093,1.97255197517247,7,12,7,2,0
1,8,1,1,-0.471684578718677,-0.255609437163093,-1.86030070974777,3,12,3,2,0
1,9,1,1,-0.428733426054093,-0.255609437163093,-1.41011788753329,3,8,7,2,0
1,10,1,1,-0.740129282872328,-0.255609437163093,-0.330452636969762,7,8,3,2,2
1,11,1,1,-0.840348639089692,-0.843511142638205,-0.139674609354699,7,10,7,1,1
1,12,1,1,-0.718653706540036,-0.255609437163093,-0.847666253487914,7,8,7,1,0
1,13,1,1,-0.16386798462249,1.50809567926225,2.25969806166444,3,12,7,1,0
1,14,1,1,-0.919092418974763,-0.255609437163093,0.672210971865939,7,8,3,1,1
1,15,1,1,1.10677028170479,-0.843511142638205,0.358961355764357,3,10,7,1,2
1,16,1,1,0.240588702969012,-0.843511142638205,1.20097545698681,3,10,7,2,2
1,17,1,1,2.69954219301646,1.50809567926225,7.30901365413491,7,12,7,1,2
1,18,1,1,0.430289627237592,-0.255609437163093,0.166943608473554,7,8,7,2,1
1,19,1,1,-0.679281816597501,-0.255609437163093,1.74590520677214,7,8,3,2,1
1,20,1,1,-0.546849095881699,-0.843511142638205,-4.52215879863385,7,10,7,2,2
1,21,1,1,-0.443050476942287,-0.255609437163093,1.98352650960989,3,8,3,2,2
1,22,1,1,-0.29987996806034,-0.255609437163093,1.78619130997655,3,8,3,2,1
1,23,1,1,-0.589800248546284,3.27180079568758,1.23908336093378,3,10,3,1,0
1,24,1,1,-0.915513156252714,-0.255609437163093,-0.697839303145775,3,8,7,1,1
2,1,1,1,0.464088670255891,-0.420558293861036,1.23816905110418,7,12,3,1,2
2,2,1,1,1.02587331658995,1.53300281310635,1.45746915944325,7,10,3,1,0
2,3,1,1,0.830743635510334,3.48656392007375,1.49764506970769,7,12,7,1,1
2,4,1,1,1.23673926227276,-0.420558293861036,0.779102434463018,7,8,7,2,2
2,5,1,1,-0.0221619059828328,-0.420558293861036,1.40499725280577,7,12,7,2,1
2,6,1,1,0.674954615938704,0.556222259622659,0.355460390694475,7,12,7,1,2
2,7,1,1,1.43029531689206,-0.420558293861036,0.409790830984271,3,8,3,1,0
2,8,1,1,1.83943819657513,-0.746151811688934,2.04399495551596,3,10,7,1,2
2,9,1,1,0.0816974403982539,-0.746151811688934,0.0989253126731543,3,10,3,2,0
2,10,1,1,-0.402979509380151,-0.746151811688934,0.0270201059451037,7,10,3,2,0
2,11,1,1,-0.0945487231575296,-0.420558293861036,0.962441660475412,7,8,7,2,0
2,12,1,1,0.169820522176146,0.556222259622659,1.54622513424111,3,12,7,2,2
2,13,1,1,-0.989942179079322,1.53300281310635,0.19553825828752,7,10,3,1,1
2,14,1,1,1.68050192408286,-0.420558293861036,0.3931590771801,3,8,7,2,1
2,15,1,1,-1.0607553697937,-0.746151811688934,2.14055485920971,7,10,7,1,0
2,16,1,1,-0.612271828602644,-0.420558293861036,2.25897543045144,3,12,3,2,2
2,17,1,1,0.475104055478128,0.556222259622659,0.529987587372868,3,8,3,2,1
2,18,1,1,-0.115005867141683,-0.420558293861036,0.571166937908681,3,12,3,1,2
2,19,1,1,-0.706689416221813,0.556222259622659,0.367576151937281,3,12,7,1,1
2,20,1,1,-1.42268945566718,-0.746151811688934,1.02806292397322,3,10,7,2,0
2,21,1,1,-0.635876225507436,-0.420558293861036,-0.233293191516688,7,12,3,2,1
2,22,1,1,-1.38649604707984,-0.420558293861036,0.160050017375432,3,8,7,1,0
2,23,1,1,-1.20080812476213,-0.420558293861036,-0.895253426351002,3,8,3,1,1
2,24,1,1,-1.25903230379396,-0.420558293861036,-0.337644315283671,7,8,3,2,2
3,1,1,1,3.2587883326523,-0.313103974450949,0.370502053845765,7,8,3,2,0
3,2,1,1,0.338950201642425,1.29714503701107,1.80572603385213,3,8,3,1,0
3,3,1,1,0.773530760676452,-0.313103974450949,0.982000796551565,3,8,7,2,2
3,4,1,1,-0.231436782089736,1.29714503701107,-0.194406417365873,7,8,3,1,1
3,5,1,1,-0.557372201365257,-0.313103974450949,2.23553328948603,7,8,7,1,1
3,6,1,1,-0.163533569740669,2.90739404847309,-0.653993828602397,7,10,7,2,1
3,7,1,1,-0.38761417049259,-0.849853644938288,0.650309301396787,7,10,3,1,2
3,8,1,1,-0.28575935196899,1.29714503701107,2.97292685164949,7,8,7,2,0
3,9,1,1,-0.143162606035949,1.29714503701107,-0.0739596199499931,3,12,7,1,1
3,10,1,1,-0.808614087056804,-0.849853644938288,-1.5626636708682,7,10,3,2,2
3,11,1,1,-0.964791475459657,-0.849853644938288,-1.27056619495087,3,10,7,1,0
3,12,1,1,-0.849356014466244,1.29714503701107,-0.933512256752394,3,12,3,1,1
3,13,1,1,-0.50983995272091,-0.313103974450949,2.3556453105222,3,12,7,2,0
3,14,1,1,0.522288874984905,-0.849853644938288,0.754672553596107,3,10,3,2,2
3,15,1,1,-0.910468905580404,-0.849853644938288,-0.719693909762172,7,10,3,2,1
3,16,1,1,-0.217856139619923,-0.313103974450949,0.0506391351387002,3,8,3,1,2
3,17,1,1,-0.231436782089736,-0.313103974450949,0.974217066163891,7,8,3,1,0
3,18,1,1,0.0605470310112509,-0.313103974450949,0.451055269268802,3,8,3,2,0
3,19,1,1,0.0130147823669042,-0.313103974450949,0.0749856459319305,3,8,7,1,2
3,20,1,1,0.705627548327385,-0.313103974450949,-0.414154749751362,7,12,7,2,2
3,21,1,1,0.352530844112238,-0.313103974450949,2.28867340519637,3,12,7,2,1
3,22,1,1,2.17233693506723,-0.849853644938288,0.222500481944331,3,10,3,2,1
3,23,1,1,-1.10059790015779,-0.849853644938288,-0.765992703858619,7,10,7,1,2
3,24,1,1,-0.83577537199643,-0.313103974450949,0.02309839835989,7,12,7,1,0
4,1,1,1,-0.00888346395525166,-0.0591726335413945,0.66295015589545,3,8,7,2,1
4,2,1,1,2.30747976237662,-0.0591726335413945,1.16302956427027,7,12,7,2,1
4,3,1,1,1.46799241860534,-0.0591726335413945,0.816180234458856,3,8,3,2,2
4,4,1,1,0.81505781789434,-0.0591726335413945,0.174393162111301,7,8,7,1,1
4,5,1,1,0.370884620131757,-0.68048528572603,0.782984953490366,7,10,3,1,2
4,6,1,1,0.0954972375189553,3.66870327956642,1.17303137905745,7,10,3,1,1
4,7,1,1,-0.144356289272839,-0.68048528572603,0.237514198289783,3,10,3,1,2
4,9,1,1,-1.33029872729894,-0.0591726335413945,-1.20674968856646,7,8,3,2,0
4,10,1,1,-1.01271489089869,-0.0591726335413945,1.60487463313468,7,8,3,2,1
4,11,1,1,-0.424185403863267,-0.68048528572603,-0.0894627911286172,3,10,3,2,0
4,12,1,1,0.21320313492604,-0.0591726335413945,-0.237268743848991,7,8,7,1,2
4,13,1,1,-0.684026724554378,-0.68048528572603,1.50203322426832,3,10,7,1,1
4,14,1,1,-0.746210972241139,-0.68048528572603,-0.673983298833573,7,10,3,2,2
4,15,1,1,0.470823589628338,1.80476532301251,0.611852792633699,3,12,3,1,1
4,16,1,1,0.262062186679924,-0.68048528572603,1.8075177484115,3,10,3,2,1
4,17,1,1,0.981622767055308,-0.0591726335413945,1.17061193768635,7,8,7,2,0
4,19,1,1,-1.1348625202834,-0.0591726335413945,0.92322826351408,3,12,7,1,2
4,21,1,1,1.17927984005966,-0.68048528572603,2.01085258913251,3,10,3,1,0
4,22,1,1,-1.33029872729894,-0.0591726335413945,0.199382045144593,7,8,7,2,2
4,23,1,1,0.0444173197762583,-0.0591726335413945,0.899902832185604,3,12,7,1,0
4,24,1,1,-1.3924829749857,-0.0591726335413945,-0.33670267820913,3,12,7,2,2
5,1,1,1,2.16756348179368,-0.395008187929654,1.14084271665258,7,8,7,2,2
5,2,1,1,1.08347567432217,-0.395008187929654,-1.38016648913651,3,8,7,1,2
5,3,1,1,0.18792487684571,-0.395008187929654,2.72138932446517,7,12,3,2,2
5,4,1,1,-0.532555839921067,0.371772412169085,-4.48870945574024,3,12,7,2,2
5,5,1,1,1.28547961360258,-0.6506017212959,2.62002365388775,3,10,7,2,1
5,7,1,1,0.807403623972285,-0.395008187929654,-0.593120803885348,3,8,3,2,0
5,9,1,1,0.120590230418908,-0.395008187929654,0.0213504162906664,3,8,7,1,1
5,10,1,1,-0.956764112409917,-0.6506017212959,-4.42532473908533,7,10,3,1,2
5,11,1,1,2.44363553214356,2.6721142124653,9.84026411770876,3,12,3,1,1
5,12,1,1,0.369728422198074,2.6721142124653,-0.178172142421329,7,12,3,1,1
5,13,1,1,0.107123301133548,-0.395008187929654,0.24022685690245,7,8,3,2,1
5,14,1,1,-0.24301686028582,-0.395008187929654,-2.78974010476653,3,12,7,2,0
5,15,1,1,-0.357485759211383,-0.395008187929654,-0.521978983736896,7,8,7,2,0
5,16,1,1,-1.07123301133548,-0.395008187929654,-0.254255369356515,3,12,3,2,2
5,17,1,1,-1.165501516333,-0.6506017212959,-2.5678702764094,3,10,3,1,2
5,18,1,1,-0.559489698491788,1.13855301226782,-0.888348287954596,3,10,3,1,0
5,19,1,1,-0.344018829926022,-0.6506017212959,-0.845207895303765,7,10,7,2,1
5,20,1,1,-0.707625920630751,-0.6506017212959,-2.27889155508506,3,10,7,1,0
5,21,1,1,-0.552756233849107,1.13855301226782,-2.71178038174686,7,10,7,1,1
5,22,1,1,-0.822094819556314,-0.395008187929654,-1.62146975147943,7,8,7,1,2
5,23,1,1,-0.465221193494265,-0.395008187929654,-1.88046747112702,7,12,7,1,0
5,24,1,1,-0.795160960985593,-0.395008187929654,-0.383988873515774,7,8,3,2,0
6,1,1,1,0.233148016104067,-0.401593372583645,1.99015569110441,3,8,7,2,1
6,2,1,1,2.25361710552058,0.912712210417374,0.568839258403991,7,12,3,2,1
6,3,1,1,0.111390490191631,0.912712210417374,-0.128675501102668,3,8,7,1,0
6,4,1,1,0.813702016469159,-0.401593372583645,0.528904191432914,3,8,7,2,0
6,5,1,1,-0.336818373312119,-0.839695233583985,0.867676873745664,7,10,7,2,2
6,6,1,1,2.91004898435284,2.22701779341839,1.24701338916267,7,10,3,1,1
6,7,1,1,-0.0915387196624291,-0.401593372583645,1.58750043884213,3,8,3,1,2
6,8,1,1,0.0690400463960008,-0.401593372583645,0.0216834661750086,3,8,7,1,2
6,9,1,1,0.40784359676104,-0.401593372583645,0.439731258835577,7,12,7,1,0
6,10,1,1,-0.66503431272825,-0.839695233583985,0.0701824289283271,7,10,7,1,2
6,11,1,1,-0.430342270027468,-0.401593372583645,1.35475372583159,7,12,7,2,0
6,12,1,1,-0.864434318932674,-0.839695233583985,-0.926988467238021,3,10,7,2,2
6,13,1,1,-0.118007747034698,-0.401593372583645,-0.7917319235756,3,8,3,1,0
6,14,1,1,1.42954805333061,-0.839695233583985,1.13269469279584,3,10,3,2,0
6,15,1,1,-0.779733431341415,-0.401593372583645,-1.10516361380689,3,12,3,2,1
6,16,1,1,0.317848903695326,-0.401593372583645,0.306962633362797,7,8,3,2,2
6,17,1,1,-1.05677591783783,0.912712210417374,-1.23241050432063,3,12,7,1,1
6,18,1,1,-0.250352883896041,-0.401593372583645,-1.30867706569016,3,12,3,2,2
6,19,1,1,-0.966781224772113,2.22701779341839,0.663497775665312,3,10,3,1,1
6,20,1,1,-0.91031396637794,2.22701779341839,0.455549982941445,7,10,7,1,1
6,21,1,1,-0.403873242655199,-0.839695233583985,1.06715253513224,7,10,3,1,0
6,22,1,1,-0.959722817472841,-0.401593372583645,-1.00069525740729,7,12,3,1,2
6,23,1,1,-0.423283862728196,-0.401593372583645,2.96726251751544,7,8,7,2,1
6,24,1,1,-0.289174124042035,-0.401593372583645,3.62080729337053,7,12,3,2,0
7,1,1,1,1.46706724705617,-0.290957186981324,1.55694699918423,7,8,7,2,2
7,2,1,1,3.76560498367291,-0.290957186981324,3.14077821644636,3,8,7,1,2
7,3,1,1,0.939971510647681,-0.290957186981324,1.48249291181906,7,12,3,2,2
7,4,1,1,0.085942975707351,-0.290957186981324,0.236185496011424,3,12,7,2,2
7,6,1,1,-0.254334018682937,-0.290957186981324,-0.58545973642473,7,8,3,1,0
7,7,1,1,-0.457833005524187,-0.290957186981324,2.51465133929366,3,8,3,2,0
7,8,1,1,-0.368871699801236,-0.290957186981324,1.26413679752742,3,8,3,2,1
7,9,1,1,0.065926681919687,-0.290957186981324,-1.39873361414214,3,8,7,1,1
7,10,1,1,-0.331063144868982,2.76409327632257,-0.087683680817965,7,10,3,1,2
7,12,1,1,-0.00524236265867385,1.23656804467062,1.44776519032811,7,12,3,1,1
7,13,1,1,-0.510097772636421,-0.290957186981324,0.913269967880925,7,8,3,2,1
7,14,1,1,-0.472289217704167,-0.290957186981324,1.64938477877089,3,12,7,2,0
7,15,1,1,-0.541234229639454,-0.290957186981324,-1.90944841011899,7,8,7,2,0
7,16,1,1,-0.531226082745622,-0.290957186981324,-0.263387710843991,3,12,3,2,2
7,17,1,1,-0.294366606258265,-0.800132264198639,0.616635130496572,3,10,3,1,2
7,19,1,1,-0.425584532199618,-0.800132264198639,2.4267051217367,7,10,7,2,1
7,20,1,1,-0.446712842308818,-0.800132264198639,0.88390970357182,3,10,7,1,0
7,21,1,1,-0.430032597485765,2.76409327632257,-1.21717846255462,7,10,7,1,1
7,22,1,1,-0.401120173125806,-0.290957186981324,-0.467023078890225,7,8,7,1,2
7,23,1,1,-0.516769870565642,-0.290957186981324,3.30210455699285,7,12,7,1,0
7,24,1,1,-0.337735242798203,-0.290957186981324,0.296986906717284,7,8,3,2,0
8,1,1,1,1.74430280251217,-0.81401415689105,1.00420369857837,3,10,7,1,1
8,2,1,1,1.95922110775353,-0.222003860970287,-0.229518147072652,3,8,3,2,0
8,3,1,1,1.11011763950489,-0.81401415689105,10.0194867102775,7,10,3,2,2
8,4,1,1,1.51881474455403,-0.81401415689105,-0.453085887191952,7,10,3,2,0
8,5,1,1,0.070758622354054,-0.222003860970287,-0.167050810133265,3,8,3,1,1
8,6,1,1,-0.0490319084362115,1.554027026792,-2.09994100296623,7,12,7,2,0
8,7,1,1,1.08193163226012,-0.222003860970287,-0.157783985522762,7,8,7,1,1
8,8,1,1,1.17353615580562,-0.222003860970287,-1.06165780824872,3,8,3,2,2
8,9,1,1,-1.06020491834228,-0.222003860970287,-2.66671680720049,3,8,7,1,2
8,10,1,1,-0.817100605856149,-0.222003860970287,-1.25665796560869,7,8,3,1,0
8,11,1,1,-0.891088874873666,-0.222003860970287,-0.803520222557296,3,8,7,1,0
8,12,1,1,0.204642156766704,-0.222003860970287,3.11201974132385,7,8,7,1,0
8,13,1,1,-0.426019755334988,-0.222003860970287,-2.35355011214548,7,8,3,1,1
8,14,1,1,-0.820623856761745,-0.222003860970287,-0.392448517313027,3,12,7,2,2
8,15,1,1,-0.915751631212838,-0.81401415689105,0.680567218762902,3,10,7,2,1
8,16,1,1,0.704943785361342,-0.222003860970287,2.98786682019473,7,12,7,2,2
8,17,1,1,0.641525269060613,3.3300579145543,4.76463390646612,7,10,7,2,1
8,18,1,1,-0.993263151135951,1.554027026792,-0.00440619343271528,3,12,3,1,2
8,19,1,1,-0.140636431981709,-0.222003860970287,0.112415428773118,7,12,3,2,1
8,20,1,1,-1.05315841653108,-0.222003860970287,0.44133015687187,3,12,3,1,0
8,21,1,1,-0.898135376684858,1.554027026792,-0.405609706314968,7,8,7,1,2
8,22,1,1,-0.947460889363202,-0.81401415689105,0.0296895432051412,3,10,3,2,1
8,23,1,1,-0.95803064207999,-0.81401415689105,-2.58339333272738,7,10,3,1,2
8,24,1,1,-0.239287457338398,-0.222003860970287,-0.936814991073451,3,12,7,2,0
9,1,1,1,0.260359713264582,-0.375540841706121,0.424575317818571,7,8,7,1,0
9,2,1,1,0.872162075787297,0.706016782407506,-0.332421487310405,3,8,7,1,2
9,3,1,1,0.0506971058832025,0.706016782407506,-0.719745580236252,3,12,3,2,2
9,4,1,1,0.229425885946018,-0.375540841706121,0.192824998989476,7,12,3,2,2
9,5,1,1,0.555949618753085,-0.375540841706121,1.03981738324492,7,8,3,1,1
9,6,1,1,-0.45455540698668,-0.375540841706121,0.0343151975431798,7,8,7,1,2
9,7,1,1,0.188180782854599,-0.736060049743996,-3.62185433815682,7,10,7,2,1
9,8,1,1,3.27468933086245,-0.375540841706121,1.06034592851382,3,8,7,2,2
9,9,1,1,0.0575712897317723,3.95068965474839,-1.39979523687406,3,12,7,1,1
9,10,1,1,-0.433932855440971,0.706016782407506,-1.03873152061419,7,12,3,1,0
9,11,1,1,1.06463922354725,-0.736060049743996,0.857855406805202,3,10,3,2,0
9,12,1,1,-0.884191897522294,-0.375540841706121,-2.23814208840784,7,8,7,1,1
9,13,1,1,-0.976993379477987,0.706016782407506,-0.214259942490801,3,12,3,1,1
9,14,1,1,0.896221719257292,-0.375540841706121,0.311622639923332,3,8,3,1,0
9,15,1,1,-0.578290716260937,0.706016782407506,-0.50509788764588,7,8,3,2,1
9,16,1,1,-0.949496644083708,-0.375540841706121,-0.505430554347196,3,12,3,2,1
9,17,1,1,-0.743271128626613,-0.736060049743996,0.559997058957578,7,10,3,2,0
9,18,1,1,-0.935748276386568,0.706016782407506,0.44324178497036,3,12,7,1,0
9,19,1,1,0.384095022538839,-0.736060049743996,-1.33858113371905,3,10,7,2,0
9,20,1,1,1.22618254398864,-0.375540841706121,0.376086971514049,3,12,3,1,2
9,21,1,1,-0.616098727428071,-0.375540841706121,-2.51616399944315,3,8,7,2,1
9,22,1,1,-0.66421801436806,-0.375540841706121,0.361437525212492,7,8,7,2,2
9,23,1,1,-1.21071563032936,-0.375540841706121,-1.44119972532288,7,8,3,1,2
9,24,1,1,-0.612661635503786,-0.736060049743996,-1.13686671068842,7,10,7,2,0
10,1,1,1,0.296138490004323,-0.435642635968827,-0.0614231666635406,7,12,3,1,2
10,2,1,1,-0.863279046458227,-0.91088914793482,-0.792159126273179,7,10,3,1,0
10,3,1,1,-0.850710834680855,0.990096899929152,-1.08998274710884,7,12,7,1,1
10,4,1,1,0.726599743379308,-0.435642635968827,0.764200779005759,7,8,7,2,2
10,5,1,1,-0.0212088573743149,-0.435642635968827,0.340295626765381,7,12,7,2,1
10,6,1,1,1.78232953267854,0.990096899929152,-0.752655153233936,7,12,7,1,2
10,7,1,1,0.113899419232432,0.990096899929152,0.313861010055867,3,8,3,1,0
10,8,1,1,0.393542131278955,-0.91088914793482,-0.372451885057469,3,10,7,1,2
10,9,1,1,-0.341698257697296,2.41583643582713,0.50808578184299,3,10,3,2,0
10,10,1,1,-0.401397263639812,-0.91088914793482,-0.505156320079218,7,10,3,2,0
10,11,1,1,-0.0777658103724881,0.990096899929152,-0.549096124814917,7,8,7,2,0
10,12,1,1,0.73916795515668,-0.435642635968827,1.3835568522511,3,12,7,2,2
10,13,1,1,-0.674755869797649,-0.91088914793482,0.075459940765608,7,10,3,1,1
10,14,1,1,-0.995245270120631,-0.435642635968827,0.838723855662739,3,8,7,2,1
10,15,1,1,2.75008183953617,-0.91088914793482,0.339525384981879,7,10,7,1,0
10,16,1,1,0.54750272555176,-0.435642635968827,-0.65829566550146,3,12,3,2,2
10,17,1,1,0.849139808208683,-0.435642635968827,0.601562685259887,3,8,3,2,1
10,18,1,1,-0.847568781736512,-0.435642635968827,-0.42805328191997,3,12,3,1,2
10,19,1,1,-1.33772904105401,0.990096899929152,-1.72363641845616,3,12,7,1,1
10,20,1,1,0.054200413289916,2.41583643582713,0.0681625939232257,3,10,7,2,0
10,21,1,1,-1.3440131469427,-0.435642635968827,-0.484021494747568,7,12,3,2,1
10,22,1,1,1.07536762020138,-0.435642635968827,-0.0901929533088342,3,8,7,1,0
10,23,1,1,-0.800437987571368,-0.435642635968827,0.85944472985783,3,8,3,1,1
10,24,1,1,-0.772159511072281,-0.435642635968827,-0.11949820198932,7,8,3,2,2
12,1,1,1,1.63379658227562,-0.0687084700658151,3.83162361180836,7,8,7,2,2
12,2,1,1,1.03887795843342,-0.0687084700658151,1.1615305484114,3,8,7,1,2
12,3,1,1,0.997957629809359,-0.0687084700658151,-0.238945088999155,7,12,3,2,2
12,4,1,1,1.58343310089215,-0.0687084700658151,1.02513490505884,3,12,7,2,2
12,5,1,1,-0.558588716698391,-0.893210110855586,-0.303763129803931,3,10,7,2,1
12,6,1,1,0.946020289632659,-0.0687084700658151,1.70395871009665,7,8,3,1,0
12,7,1,1,1.61018870037712,-0.0687084700658151,0.453370401690758,3,8,3,2,0
12,8,1,1,0.340084654237832,-0.0687084700658151,-0.543692338153771,3,8,3,2,1
12,9,1,1,0.333789219064899,-0.0687084700658151,1.68145155530543,3,8,7,1,1
12,10,1,1,0.920838548940926,-0.893210110855586,1.06897568048756,7,10,3,1,2
12,11,1,1,0.90352610221536,2.4047964523035,2.09139383283321,3,12,3,1,1
12,12,1,1,-0.234373805292328,2.4047964523035,1.52864660455312,7,12,3,1,1
12,13,1,1,-1.11416087070975,-0.0687084700658151,-0.0186599856522986,7,8,3,2,1
12,14,1,1,-0.324083756506627,-0.0687084700658151,-1.78903416462542,3,12,7,2,0
12,15,1,1,-0.621543068427724,-0.0687084700658151,16.9345263276474,7,8,7,2,0
12,16,1,1,0.417203735106265,-0.0687084700658151,-0.490686022033579,3,12,3,2,2
12,17,1,1,-0.659315679465324,-0.893210110855586,-0.186538293357848,3,10,3,1,2
12,18,1,1,-0.846604875860088,-0.893210110855586,-2.64797633886644,3,10,3,1,0
12,19,1,1,-1.26997289123985,-0.893210110855586,1.02464360053813,7,10,7,2,1
12,20,1,1,-1.03074635466839,-0.893210110855586,-2.07203903096865,3,10,7,1,0
12,21,1,1,-0.819849276375122,-0.893210110855586,-2.03236678823172,7,10,7,1,1
12,22,1,1,-0.936314827074387,-0.0687084700658151,-0.343765662274607,7,8,7,1,2
12,23,1,1,-0.99454760242402,2.4047964523035,0.0253667474099181,7,12,7,1,0
12,24,1,1,-1.31561479624362,-0.0687084700658151,-0.162290496696546,7,8,3,2,0
13,1,1,1,0.786978041941942,3.07487454701057,0.862354040323459,7,10,7,1,1
13,2,1,1,0.495618884396345,-0.229468249776909,-0.308384591137523,3,8,3,1,1
13,3,1,1,-0.376146213974209,1.42270314861683,0.155037555526183,3,12,7,1,0
13,4,1,1,0.958093737643324,-0.229468249776909,1.34200212159004,3,8,7,2,1
13,5,1,1,1.40669434529289,-0.229468249776909,1.43533311526642,7,12,3,1,2
13,6,1,1,0.810101784604291,-0.780192049241489,0.312364807345443,7,10,3,2,2
13,7,1,1,1.27951376064997,-0.780192049241489,-0.943880162277327,3,10,3,2,2
13,8,1,1,1.39744484822795,1.42270314861683,0.923644950156955,7,12,3,1,1
13,9,1,1,0.49793125866258,1.42270314861683,1.83462094947864,3,12,7,2,2
13,10,1,1,0.523367375591164,-0.780192049241489,9.15235600899484,3,10,7,2,0
13,11,1,1,0.375375422552131,-0.229468249776909,0.376074678670356,7,12,3,1,0
13,12,1,1,1.19164353853305,-0.229468249776909,0.962138428752506,7,12,7,2,2
13,13,1,1,0.363813551220956,-0.229468249776909,0.729998572892537,3,8,3,2,0
13,14,1,1,-0.850182938552362,-0.780192049241489,-1.18756100508128,3,10,3,2,1
13,15,1,1,-1.11379360490314,-0.229468249776909,-0.539110360106911,3,8,3,1,2
13,16,1,1,0.449371399071647,-0.780192049241489,0.690880272687542,7,10,7,1,2
13,17,1,1,0.0886410135390041,-0.229468249776909,0.893049519300909,7,12,3,2,1
13,18,1,1,-1.7011366685268,-0.780192049241489,-0.425345620993715,3,10,3,1,0
13,19,1,1,-0.998174891591396,-0.229468249776909,0.0892077296576013,7,8,7,1,0
13,20,1,1,-0.713752856844504,1.42270314861683,0.321786483219677,3,12,7,1,1
13,21,1,1,-1.05367187398103,-0.780192049241489,-0.13532148497408,3,10,7,1,2
13,22,1,1,-1.33809390872792,-0.229468249776909,-1.31412330083118,7,12,7,2,1
13,23,1,1,-1.4490878735072,-0.780192049241489,-0.738870669308566,7,10,7,2,0
13,24,1,1,-1.03054813131868,-0.229468249776909,0.0454539549935535,7,8,3,2,0
14,2,1,1,-0.315219554572394,-0.268182305786454,-1.19950081080266,3,8,7,1,2
14,3,1,1,1.56452084710522,1.50182091240414,7.62136933900611,7,12,7,2,2
14,4,1,1,0.895953384652873,-0.858183378516652,0.142657773919737,7,10,3,1,1
14,10,1,1,-0.765083789141779,1.50182091240414,3.28749505599761,3,12,3,1,2
14,11,1,1,-0.994860598183372,-0.268182305786454,2.60203372229582,7,8,7,2,1
14,16,1,1,-0.456407714344939,-0.268182305786454,6.13682572102526,7,12,7,1,1
14,17,1,1,-0.665421558714099,-0.858183378516652,0.511783701132062,7,10,7,2,0
14,19,1,1,0.513914834680103,-0.268182305786454,1.77944637962648,7,8,3,2,2
14,20,1,1,-0.986555412314399,1.50182091240414,4.8289662856183,3,12,3,1,1
14,22,1,1,1.71262999510191,-0.858183378516652,0.212520994102725,7,10,3,1,0
14,24,1,1,-0.503470434269121,-0.858183378516652,3.50327782557231,7,10,7,1,2
15,1,1,1,1.08278858340077,-0.715491385636572,-1.46328469751688,3,8,7,2,2
15,2,1,1,0.64626485667867,0.946295058422562,1.06391130745561,3,10,7,1,0
15,3,1,1,2.21932333135292,0.115401836392995,1.80596100917235,3,12,3,2,0
15,4,1,1,1.31874735460191,0.115401836392995,-1.0272501919119,3,12,3,1,0
15,5,1,1,0.249067591823422,0.115401836392995,0.423303577356731,7,12,7,1,1
15,6,1,1,2.44741681018068,-0.99245579297976,2.70470844115713,3,10,3,1,2
15,7,1,1,-0.671171615861012,-0.715491385636572,1.03826597769061,7,8,3,1,0
15,8,1,1,-0.710498077727868,2.6080815024817,0.577003525918455,3,12,7,1,1
15,9,1,1,1.01593359822712,-0.715491385636572,-1.38780594945511,3,8,7,1,2
15,10,1,1,-0.226782596765537,0.946295058422562,-0.568613922053713,7,10,3,2,0
15,11,1,1,0.103559682916055,-0.715491385636572,-0.351866796178335,3,8,7,2,0
15,12,1,1,0.426036670224275,-0.715491385636572,-0.678785641929451,7,8,3,1,2
15,13,1,1,-0.0340829336179419,-0.715491385636572,0.921138429644547,7,8,7,1,2
15,14,1,1,-0.970052726049118,0.115401836392995,-2.13838947537166,3,12,3,2,2
15,15,1,1,-1.1116279887698,0.115401836392995,-3.53926820620578,7,12,3,2,2
15,16,1,1,-0.66330632348764,0.115401836392995,1.40396684009135,3,12,7,2,1
15,17,1,1,-0.541394291700386,2.6080815024817,-2.24986151280269,3,12,3,1,1
15,18,1,1,-1.02117712647603,0.115401836392995,-3.06242104066675,7,12,7,2,2
15,19,1,1,-0.266109058632393,-0.715491385636572,1.52587591182471,7,8,7,2,0
15,20,1,1,-0.596451338313985,-0.715491385636572,-1.47495588962446,7,8,3,2,1
15,21,1,1,-0.616114569247413,-0.715491385636572,1.10737106699746,3,8,3,2,1
15,22,1,1,-0.293637581939192,0.946295058422562,-0.661587660921831,7,10,7,2,1
15,23,1,1,-0.793083647648266,-0.715491385636572,-1.9785253764083,7,8,3,1,1
15,24,1,1,-0.993648603169232,-0.715491385636572,-2.87924614677408,7,8,7,1,0
16,1,1,1,-0.0767076766725516,-0.300796416641907,2.4283439438582,3,12,7,2,2
16,2,1,1,-0.0369333258053026,-0.300796416641907,-0.0218810328191583,3,8,7,1,2
16,3,1,1,1.44202314929934,-0.300796416641907,1.51889925453592,7,12,7,2,2
16,4,1,1,-0.737448933936647,1.76180758318831,1.77137298744533,7,10,3,1,1
16,5,1,1,-0.0734607908874701,-0.300796416641907,0.608384038311135,3,12,3,2,1
16,6,1,1,0.620561045673711,-0.300796416641907,0.441421339327268,7,8,3,2,1
16,7,1,1,-0.0109582395246502,-0.300796416641907,0.847336718743076,7,8,3,2,0
16,8,1,1,-0.339705425264157,-0.644563749946943,-0.49755763152836,3,10,7,2,1
16,9,1,1,-0.334023375140264,-0.300796416641907,-0.850558663834773,3,8,3,1,0
16,10,1,1,-1.01181078277604,0.730505583273202,0.21809591701338,3,12,3,1,2
16,11,1,1,2.18961860131437,-0.300796416641907,1.17070618282192,7,8,7,2,1
16,12,1,1,-0.677381546912638,-0.644563749946943,1.08328953898152,7,10,3,1,2
16,13,1,1,0.749624755630703,-0.300796416641907,2.3189553361199,3,8,7,2,0
16,14,1,1,-0.898981501744454,0.730505583273202,-1.01369105370953,3,12,3,2,2
16,15,1,1,-0.22038237266241,-0.644563749946943,0.845528274283035,3,10,7,1,0
16,16,1,1,0.573481201790029,3.82441158301853,0.244048536343472,7,12,7,1,1
16,17,1,1,0.221194094108681,-0.644563749946943,1.24641032741325,7,10,7,2,0
16,18,1,1,-0.839725836166716,-0.300796416641907,3.21330654785007,7,12,7,1,0
16,19,1,1,-0.0702139051023885,-0.300796416641907,0.598875397245766,7,8,3,2,2
16,20,1,1,-0.574292923236299,0.730505583273202,0.722803054471198,3,12,3,1,1
16,21,1,1,2.82925510097544,-0.300796416641907,1.44056802519414,3,12,3,2,0
16,22,1,1,-0.585657023484085,-0.644563749946943,0.36265332104808,7,10,3,1,0
16,23,1,1,-1.0183045543462,-0.300796416641907,0.218543243665111,3,8,7,1,1
16,24,1,1,-1.11976973513,-0.644563749946943,0.512074864689204,7,10,7,1,2
17,1,1,1,1.15396500324483,-0.25993450567827,2.02763721516939,3,8,7,2,1
17,2,1,1,2.26490879391686,1.07687152352426,1.66299360246271,7,12,7,2,1
17,3,1,1,0.419764882326164,-0.25993450567827,1.53366116499703,3,8,3,2,2
17,4,1,1,1.66186175939697,-0.25993450567827,1.28551254322637,7,8,7,1,1
17,5,1,1,-0.633317252581696,-0.705536515412446,0.287602485359993,7,10,3,1,2
17,6,1,1,0.574062631030612,2.41367755272679,-0.0670758331867665,7,10,3,1,1
17,7,1,1,-0.818474551027034,-0.705536515412446,-1.25950674379857,3,10,3,1,2
17,8,1,1,-0.94705600828074,-0.705536515412446,0.41293845014167,3,10,7,2,0
17,9,1,1,-1.19264659163532,-0.25993450567827,-0.875607691208177,7,8,3,2,0
17,10,1,1,1.63228802422862,-0.25993450567827,1.72119790158576,7,8,3,2,1
17,11,1,1,-0.875050392218665,-0.705536515412446,1.45187645187796,3,10,3,2,0
17,12,1,1,-0.68860727920079,-0.25993450567827,-0.167869735667853,7,8,7,1,2
17,13,1,1,0.620351955641947,-0.705536515412446,0.781889725360773,3,10,7,1,1
17,14,1,1,-0.76318452440794,-0.705536515412446,0.650418291481555,7,10,3,2,2
17,15,1,1,-0.148565158735221,-0.25993450567827,-0.468589143817424,3,12,3,1,1
17,16,1,1,-0.692464722918401,-0.705536515412446,-0.710409042461642,3,10,3,2,1
